instr_done_touch.x,instr_done_touch.y,instr_done_touch.leftButton,instr_done_touch.midButton,instr_done_touch.rightButton,instr_done_touch.clicked_name,instruct_pages.thisRepN,instruct_pages.thisTrialN,instruct_pages.thisN,instruct_pages.thisIndex,instruct_pages.ran,pageN,instruct_text,participant,order,session,gender,date,expName,psychopyVersion,OS,frameRate,key_resp.keys,key_resp.corr,key_resp.rt,touch_resp.x,touch_resp.y,touch_resp.leftButton,touch_resp.midButton,touch_resp.rightButton,touch_resp.time,touch_resp.clicked_name,rt,corr,trials.thisRepN,trials.thisTrialN,trials.thisN,trials.thisIndex,trials.ran,stimImage,stimWord,CorrAns,blocks.thisRepN,blocks.thisTrialN,blocks.thisN,blocks.thisIndex,blocks.ran,conds_file,label_left,label_right
0.04537037,-0.407407407,1,0,0,instr_done_button,0,0,0,0,1,1,"You will be presented with words or images to classify into categories using either the 'A' or 'L' key. 
 
Try to go as fast as possible while making as few mistakes as possible. 
",123,1,001,male,2022-05-11_12h14.26.426,openIAT,2020.1.0rc3,Win32,60,,,,,,,,,,,,,,,,,,,,,,,,,,,,
-0.035185185,-0.396296296,1,0,0,instr_done_button,0,1,1,1,1,2,"Keep in mind: 
 
1) Labels at the top of the screen indicate which catogory goes with which key. 
 
2) Each word or image has a correct catogory classification 
 
3) Keep your index fingers on the A and L keys to enable a rapid response. 
 
4) The test gives no results if you go slow- please try to go as fast as possible 
",123,1,001,male,2022-05-11_12h14.26.426,openIAT,2020.1.0rc3,Win32,60,,,,,,,,,,,,,,,,,,,,,,,,,,,,
,,,,,,,,,,,,,123,1,001,male,2022-05-11_12h14.26.426,openIAT,2020.1.0rc3,Win32,60,a,1,1.6839,,,,,,,,1.6839,1,0,0,0,4,1,stimuli/blank.png,Pleasure,a,,,,,,,,
,,,,,,,,,,,,,123,1,001,male,2022-05-11_12h14.26.426,openIAT,2020.1.0rc3,Win32,60,a,1,0.8573,,,,,,,,0.8573,1,0,1,1,2,1,stimuli/blank.png,Happy,a,,,,,,,,
,,,,,,,,,,,,,123,1,001,male,2022-05-11_12h14.26.426,openIAT,2020.1.0rc3,Win32,60,l,1,0.9798,,,,,,,,0.9798,1,0,2,2,3,1,stimuli/blank.png,Hurt,l,,,,,,,,
,,,,,,,,,,,,,123,1,001,male,2022-05-11_12h14.26.426,openIAT,2020.1.0rc3,Win32,60,l,1,1.0916,,,,,,,,1.0916,1,0,3,3,1,1,stimuli/blank.png,Bad,l,,,,,,,,
,,,,,,,,,,,,,123,1,001,male,2022-05-11_12h14.26.426,openIAT,2020.1.0rc3,Win32,60,l,0,1.0084,,,,,,,,1.0084,0,0,4,4,0,1,stimuli/blank.png,Good,a,,,,,,,,
,,,,,,,,,,,,,123,1,001,male,2022-05-11_12h14.26.426,openIAT,2020.1.0rc3,Win32,60,a,1,1.5746,,,,,,,,1.5746,1,0,5,5,6,1,stimuli/blank.png,Love,a,,,,,,,,
,,,,,,,,,,,,,123,1,001,male,2022-05-11_12h14.26.426,openIAT,2020.1.0rc3,Win32,60,a,1,0.9855,,,,,,,,0.9855,1,0,6,6,8,1,stimuli/blank.png,Joy,a,,,,,,,,
,,,,,,,,,,,,,123,1,001,male,2022-05-11_12h14.26.426,openIAT,2020.1.0rc3,Win32,60,l,1,2.103,,,,,,,,2.103,1,0,7,7,5,1,stimuli/blank.png,Agony,l,,,,,,,,
,,,,,,,,,,,,,123,1,001,male,2022-05-11_12h14.26.426,openIAT,2020.1.0rc3,Win32,60,l,1,1.2261,,,,,,,,1.2261,1,0,8,8,9,1,stimuli/blank.png,Nasty,l,,,,,,,,
,,,,,,,,,,,,,123,1,001,male,2022-05-11_12h14.26.426,openIAT,2020.1.0rc3,Win32,60,l,1,1.2876,,,,,,,,1.2876,1,0,9,9,7,1,stimuli/blank.png,Evil,l,,,,,,,,
,,,,,,,,,,,,,123,1,001,male,2022-05-11_12h14.26.426,openIAT,2020.1.0rc3,Win32,60,,,,,,,,,,,,,,,,,,,,,0,0,0,0,1,pos_neg_train.xlsx,"A = 
Positive","L = 
Negative"
,,,,,,,,,,,,,123,1,001,male,2022-05-11_12h14.26.426,openIAT,2020.1.0rc3,Win32,60,a,1,4.9371,,,,,,,,4.9371,1,0,0,0,7,1,stimuli/white_4.jpg,NaN,a,,,,,,,,
,,,,,,,,,,,,,123,1,001,male,2022-05-11_12h14.26.426,openIAT,2020.1.0rc3,Win32,60,l,1,1.3026,,,,,,,,1.3026,1,0,1,1,4,1,stimuli/black_3.jpg,NaN,l,,,,,,,,
,,,,,,,,,,,,,123,1,001,male,2022-05-11_12h14.26.426,openIAT,2020.1.0rc3,Win32,60,a,1,1.2526,,,,,,,,1.2526,1,0,2,2,5,1,stimuli/white_3.jpg,NaN,a,,,,,,,,
,,,,,,,,,,,,,123,1,001,male,2022-05-11_12h14.26.426,openIAT,2020.1.0rc3,Win32,60,a,1,0.9753,,,,,,,,0.9753,1,0,3,3,1,1,stimuli/white_1.jpg,NaN,a,,,,,,,,
,,,,,,,,,,,,,123,1,001,male,2022-05-11_12h14.26.426,openIAT,2020.1.0rc3,Win32,60,l,1,1.1066,,,,,,,,1.1066,1,0,4,4,8,1,stimuli/black_5.jpg,NaN,l,,,,,,,,
,,,,,,,,,,,,,123,1,001,male,2022-05-11_12h14.26.426,openIAT,2020.1.0rc3,Win32,60,l,1,0.8568,,,,,,,,0.8568,1,0,5,5,6,1,stimuli/black_4.jpg,NaN,l,,,,,,,,
,,,,,,,,,,,,,123,1,001,male,2022-05-11_12h14.26.426,openIAT,2020.1.0rc3,Win32,60,a,1,1.0056,,,,,,,,1.0056,1,0,6,6,3,1,stimuli/white_2.jpg,NaN,a,,,,,,,,
,,,,,,,,,,,,,123,1,001,male,2022-05-11_12h14.26.426,openIAT,2020.1.0rc3,Win32,60,a,1,1.4345,,,,,,,,1.4345,1,0,7,7,9,1,stimuli/white_5.jpg,NaN,a,,,,,,,,
,,,,,,,,,,,,,123,1,001,male,2022-05-11_12h14.26.426,openIAT,2020.1.0rc3,Win32,60,l,1,1.0943,,,,,,,,1.0943,1,0,8,8,2,1,stimuli/black_2.jpg,NaN,l,,,,,,,,
,,,,,,,,,,,,,123,1,001,male,2022-05-11_12h14.26.426,openIAT,2020.1.0rc3,Win32,60,l,1,0.9087,,,,,,,,0.9087,1,0,9,9,0,1,stimuli/black_1.jpg,NaN,l,,,,,,,,
,,,,,,,,,,,,,123,1,001,male,2022-05-11_12h14.26.426,openIAT,2020.1.0rc3,Win32,60,,,,,,,,,,,,,,,,,,,,,0,1,1,1,1,cong_train.xlsx,"A = 
White","L = 
Black"
,,,,,,,,,,,,,123,1,001,male,2022-05-11_12h14.26.426,openIAT,2020.1.0rc3,Win32,60,a,1,0.9917,,,,,,,,0.9917,1,0,0,0,10,1,stimuli/blank.png,Good,a,,,,,,,,
,,,,,,,,,,,,,123,1,001,male,2022-05-11_12h14.26.426,openIAT,2020.1.0rc3,Win32,60,l,1,1.4088,,,,,,,,1.4088,1,0,1,1,19,1,stimuli/blank.png,Nasty,l,,,,,,,,
,,,,,,,,,,,,,123,1,001,male,2022-05-11_12h14.26.426,openIAT,2020.1.0rc3,Win32,60,l,1,0.8014,,,,,,,,0.8014,1,0,2,2,17,1,stimuli/blank.png,Evil,l,,,,,,,,
,,,,,,,,,,,,,123,1,001,male,2022-05-11_12h14.26.426,openIAT,2020.1.0rc3,Win32,60,l,1,0.9051,,,,,,,,0.9051,1,0,3,3,13,1,stimuli/blank.png,Hurt,l,,,,,,,,
,,,,,,,,,,,,,123,1,001,male,2022-05-11_12h14.26.426,openIAT,2020.1.0rc3,Win32,60,l,1,0.9264,,,,,,,,0.9264,1,0,4,4,8,1,stimuli/black_5.jpg,NaN,l,,,,,,,,
,,,,,,,,,,,,,123,1,001,male,2022-05-11_12h14.26.426,openIAT,2020.1.0rc3,Win32,60,l,1,1.0088,,,,,,,,1.0088,1,0,5,5,15,1,stimuli/blank.png,Agony,l,,,,,,,,
,,,,,,,,,,,,,123,1,001,male,2022-05-11_12h14.26.426,openIAT,2020.1.0rc3,Win32,60,l,1,0.5118,,,,,,,,0.5118,1,0,6,6,11,1,stimuli/blank.png,Bad,l,,,,,,,,
,,,,,,,,,,,,,123,1,001,male,2022-05-11_12h14.26.426,openIAT,2020.1.0rc3,Win32,60,a,1,0.7823,,,,,,,,0.7823,1,0,7,7,7,1,stimuli/white_4.jpg,NaN,a,,,,,,,,
,,,,,,,,,,,,,123,1,001,male,2022-05-11_12h14.26.426,openIAT,2020.1.0rc3,Win32,60,l,1,0.7842,,,,,,,,0.7842,1,0,8,8,6,1,stimuli/black_4.jpg,NaN,l,,,,,,,,
,,,,,,,,,,,,,123,1,001,male,2022-05-11_12h14.26.426,openIAT,2020.1.0rc3,Win32,60,a,1,0.802,,,,,,,,0.802,1,0,9,9,16,1,stimuli/blank.png,Love,a,,,,,,,,
,,,,,,,,,,,,,123,1,001,male,2022-05-11_12h14.26.426,openIAT,2020.1.0rc3,Win32,60,a,1,1.176,,,,,,,,1.176,1,0,10,10,5,1,stimuli/white_3.jpg,NaN,a,,,,,,,,
