instr_done_touch.x,instr_done_touch.y,instr_done_touch.leftButton,instr_done_touch.midButton,instr_done_touch.rightButton,instruct_pages.thisRepN,instruct_pages.thisTrialN,instruct_pages.thisN,instruct_pages.thisIndex,instruct_pages.ran,pageN,instruct_text,participant,order,session,gender,date,expName,psychopyVersion,OS,frameRate,key_resp.keys,key_resp.corr,key_resp.rt,touch_resp.x,touch_resp.y,touch_resp.leftButton,touch_resp.midButton,touch_resp.rightButton,touch_resp.time,touch_resp.clicked_name,rt,corr,trials.thisRepN,trials.thisTrialN,trials.thisN,trials.thisIndex,trials.ran,stimImage,stimWord,CorrAns,blocks.thisRepN,blocks.thisTrialN,blocks.thisN,blocks.thisIndex,blocks.ran,conds_file,label_left,label_right
-0.4375,0.046527767,0,0,0,0,0,0,0,1,1,"You will be presented with words or images to classify into categories using either the 'A' or 'L' key. 
 
Try to go as fast as possible while making as few mistakes as possible. 
",1,1,001,female,2024-03-26_09h12.50.731,openIAT,2020.1.0rc3,Win32,60,,,,,,,,,,,,,,,,,,,,,,,,,,,,
-0.4375,0.046527767,0,0,0,0,1,1,1,1,2,"Keep in mind: 
 
1) Labels at the top of the screen indicate which catogory goes with which key. 
 
2) Each word or image has a correct catogory classification 
 
3) Keep your index fingers on the A and L keys to enable a rapid response. 
 
4) The test gives no results if you go slow- please try to go as fast as possible 
",1,1,001,female,2024-03-26_09h12.50.731,openIAT,2020.1.0rc3,Win32,60,,,,,,,,,,,,,,,,,,,,,,,,,,,,
,,,,,,,,,,,,1,1,001,female,2024-03-26_09h12.50.731,openIAT,2020.1.0rc3,Win32,60,l,1,1.1156,,,,,,,,1.1156,1,0,0,0,7,1,stimuli/blank.png,Evil,l,,,,,,,,
,,,,,,,,,,,,1,1,001,female,2024-03-26_09h12.50.731,openIAT,2020.1.0rc3,Win32,60,l,1,0.7229,,,,,,,,0.7229,1,0,1,1,3,1,stimuli/blank.png,Hurt,l,,,,,,,,
,,,,,,,,,,,,1,1,001,female,2024-03-26_09h12.50.731,openIAT,2020.1.0rc3,Win32,60,a,1,254.0701,,,,,,,,254.0701,1,0,2,2,2,1,stimuli/blank.png,Happy,a,,,,,,,,
,,,,,,,,,,,,1,1,001,female,2024-03-26_09h12.50.731,openIAT,2020.1.0rc3,Win32,60,l,1,0.7645,,,,,,,,0.7645,1,0,3,3,5,1,stimuli/blank.png,Agony,l,,,,,,,,
,,,,,,,,,,,,1,1,001,female,2024-03-26_09h12.50.731,openIAT,2020.1.0rc3,Win32,60,l,0,0.6568,,,,,,,,0.6568,0,0,4,4,6,1,stimuli/blank.png,Love,a,,,,,,,,
,,,,,,,,,,,,1,1,001,female,2024-03-26_09h12.50.731,openIAT,2020.1.0rc3,Win32,60,a,1,0.7016,,,,,,,,0.7016,1,0,5,5,0,1,stimuli/blank.png,Good,a,,,,,,,,
,,,,,,,,,,,,1,1,001,female,2024-03-26_09h12.50.731,openIAT,2020.1.0rc3,Win32,60,l,1,0.6382,,,,,,,,0.6382,1,0,6,6,9,1,stimuli/blank.png,Nasty,l,,,,,,,,
,,,,,,,,,,,,1,1,001,female,2024-03-26_09h12.50.731,openIAT,2020.1.0rc3,Win32,60,a,1,0.6269,,,,,,,,0.6269,1,0,7,7,8,1,stimuli/blank.png,Joy,a,,,,,,,,
,,,,,,,,,,,,1,1,001,female,2024-03-26_09h12.50.731,openIAT,2020.1.0rc3,Win32,60,a,1,0.6715,,,,,,,,0.6715,1,0,8,8,4,1,stimuli/blank.png,Pleasure,a,,,,,,,,
,,,,,,,,,,,,1,1,001,female,2024-03-26_09h12.50.731,openIAT,2020.1.0rc3,Win32,60,l,1,0.6725,,,,,,,,0.6725,1,0,9,9,1,1,stimuli/blank.png,Bad,l,,,,,,,,
,,,,,,,,,,,,1,1,001,female,2024-03-26_09h12.50.731,openIAT,2020.1.0rc3,Win32,60,,,,,,,,,,,,,,,,,,,,,0,0,0,0,1,pos_neg_train.xlsx,"A = 
Positive","L = 
Negative"
,,,,,,,,,,,,1,1,001,female,2024-03-26_09h12.50.731,openIAT,2020.1.0rc3,Win32,60,l,1,2.0875,,,,,,,,2.0875,1,0,0,0,8,1,stimuli/black_5.jpg,NaN,l,,,,,,,,
,,,,,,,,,,,,1,1,001,female,2024-03-26_09h12.50.731,openIAT,2020.1.0rc3,Win32,60,l,0,1.0509,,,,,,,,1.0509,0,0,1,1,5,1,stimuli/white_3.jpg,NaN,a,,,,,,,,
,,,,,,,,,,,,1,1,001,female,2024-03-26_09h12.50.731,openIAT,2020.1.0rc3,Win32,60,l,1,1.284,,,,,,,,1.284,1,0,2,2,0,1,stimuli/black_1.jpg,NaN,l,,,,,,,,
,,,,,,,,,,,,1,1,001,female,2024-03-26_09h12.50.731,openIAT,2020.1.0rc3,Win32,60,l,1,0.6623,,,,,,,,0.6623,1,0,3,3,6,1,stimuli/black_4.jpg,NaN,l,,,,,,,,
,,,,,,,,,,,,1,1,001,female,2024-03-26_09h12.50.731,openIAT,2020.1.0rc3,Win32,60,a,1,1.4576,,,,,,,,1.4576,1,0,4,4,1,1,stimuli/white_1.jpg,NaN,a,,,,,,,,
,,,,,,,,,,,,1,1,001,female,2024-03-26_09h12.50.731,openIAT,2020.1.0rc3,Win32,60,a,1,0.9046,,,,,,,,0.9046,1,0,5,5,7,1,stimuli/white_4.jpg,NaN,a,,,,,,,,
,,,,,,,,,,,,1,1,001,female,2024-03-26_09h12.50.731,openIAT,2020.1.0rc3,Win32,60,a,1,0.6685,,,,,,,,0.6685,1,0,6,6,3,1,stimuli/white_2.jpg,NaN,a,,,,,,,,
,,,,,,,,,,,,1,1,001,female,2024-03-26_09h12.50.731,openIAT,2020.1.0rc3,Win32,60,l,1,0.7176,,,,,,,,0.7176,1,0,7,7,4,1,stimuli/black_3.jpg,NaN,l,,,,,,,,
,,,,,,,,,,,,1,1,001,female,2024-03-26_09h12.50.731,openIAT,2020.1.0rc3,Win32,60,a,1,0.8139,,,,,,,,0.8139,1,0,8,8,9,1,stimuli/white_5.jpg,NaN,a,,,,,,,,
,,,,,,,,,,,,1,1,001,female,2024-03-26_09h12.50.731,openIAT,2020.1.0rc3,Win32,60,l,1,0.6334,,,,,,,,0.6334,1,0,9,9,2,1,stimuli/black_2.jpg,NaN,l,,,,,,,,
,,,,,,,,,,,,1,1,001,female,2024-03-26_09h12.50.731,openIAT,2020.1.0rc3,Win32,60,,,,,,,,,,,,,,,,,,,,,0,1,1,1,1,cong_train.xlsx,"A = 
White","L = 
Black"
