instr_done_touch.x,instr_done_touch.y,instr_done_touch.leftButton,instr_done_touch.midButton,instr_done_touch.rightButton,instruct_pages.thisRepN,instruct_pages.thisTrialN,instruct_pages.thisN,instruct_pages.thisIndex,instruct_pages.ran,pageN,instruct_text,participant,order,session,gender,date,expName,psychopyVersion,OS,frameRate,key_resp.keys,key_resp.corr,key_resp.rt,touch_resp.x,touch_resp.y,touch_resp.leftButton,touch_resp.midButton,touch_resp.rightButton,touch_resp.time,touch_resp.clicked_name,rt,corr,trials.thisRepN,trials.thisTrialN,trials.thisN,trials.thisIndex,trials.ran,stimImage,stimWord,CorrAns,blocks.thisRepN,blocks.thisTrialN,blocks.thisN,blocks.thisIndex,blocks.ran,conds_file,label_left,label_right
0.01171875,-0.126953125,0,0,0,0,0,0,0,1,1,"You will be presented with words or images to classify into categories using either the 'A' or 'L' key. 
 
Try to go as fast as possible while making as few mistakes as possible. 
",1,2,001,male,2022-01-05_18h41.18.915,openIAT,2020.1.0rc3,MacIntel,60,,,,,,,,,,,,,,,,,,,,,,,,,,,,
0.01171875,-0.126953125,0,0,0,0,1,1,1,1,2,"Keep in mind: 
 
1) Labels at the top of the screen indicate which catogory goes with which key. 
 
2) Each word or image has a correct catogory classification 
 
3) Keep your index fingers on the A and L keys to enable a rapid response. 
 
4) The test gives no results if you go slow- please try to go as fast as possible 
",1,2,001,male,2022-01-05_18h41.18.915,openIAT,2020.1.0rc3,MacIntel,60,,,,,,,,,,,,,,,,,,,,,,,,,,,,
,,,,,,,,,,,,1,2,001,male,2022-01-05_18h41.18.915,openIAT,2020.1.0rc3,MacIntel,60,l,1,1.102,,,,,,,,1.102,1,0,0,0,3,1,stimuli/blank.png,Hurt,l,,,,,,,,
,,,,,,,,,,,,1,2,001,male,2022-01-05_18h41.18.915,openIAT,2020.1.0rc3,MacIntel,60,l,1,0.716,,,,,,,,0.716,1,0,1,1,5,1,stimuli/blank.png,Agony,l,,,,,,,,
,,,,,,,,,,,,1,2,001,male,2022-01-05_18h41.18.915,openIAT,2020.1.0rc3,MacIntel,60,a,1,0.659,,,,,,,,0.659,1,0,2,2,8,1,stimuli/blank.png,Joy,a,,,,,,,,
,,,,,,,,,,,,1,2,001,male,2022-01-05_18h41.18.915,openIAT,2020.1.0rc3,MacIntel,60,l,1,0.507,,,,,,,,0.507,1,0,3,3,1,1,stimuli/blank.png,Bad,l,,,,,,,,
,,,,,,,,,,,,1,2,001,male,2022-01-05_18h41.18.915,openIAT,2020.1.0rc3,MacIntel,60,a,1,0.658,,,,,,,,0.658,1,0,4,4,4,1,stimuli/blank.png,Pleasure,a,,,,,,,,
,,,,,,,,,,,,1,2,001,male,2022-01-05_18h41.18.915,openIAT,2020.1.0rc3,MacIntel,60,a,1,0.726,,,,,,,,0.726,1,0,5,5,0,1,stimuli/blank.png,Good,a,,,,,,,,
,,,,,,,,,,,,1,2,001,male,2022-01-05_18h41.18.915,openIAT,2020.1.0rc3,MacIntel,60,a,1,0.388,,,,,,,,0.388,1,0,6,6,6,1,stimuli/blank.png,Love,a,,,,,,,,
,,,,,,,,,,,,1,2,001,male,2022-01-05_18h41.18.915,openIAT,2020.1.0rc3,MacIntel,60,l,1,0.548,,,,,,,,0.548,1,0,7,7,7,1,stimuli/blank.png,Evil,l,,,,,,,,
,,,,,,,,,,,,1,2,001,male,2022-01-05_18h41.18.915,openIAT,2020.1.0rc3,MacIntel,60,a,1,0.543,,,,,,,,0.543,1,0,8,8,2,1,stimuli/blank.png,Happy,a,,,,,,,,
,,,,,,,,,,,,1,2,001,male,2022-01-05_18h41.18.915,openIAT,2020.1.0rc3,MacIntel,60,l,1,0.467,,,,,,,,0.467,1,0,9,9,9,1,stimuli/blank.png,Nasty,l,,,,,,,,
,,,,,,,,,,,,1,2,001,male,2022-01-05_18h41.18.915,openIAT,2020.1.0rc3,MacIntel,60,,,,,,,,,,,,,,,,,,,,,0,0,0,0,1,pos_neg_train.xlsx,"A = 
Positive","L = 
Negative"
,,,,,,,,,,,,1,2,001,male,2022-01-05_18h41.18.915,openIAT,2020.1.0rc3,MacIntel,60,a,1,0.721,,,,,,,,0.721,1,0,0,0,6,1,stimuli/black_4.jpg,,a,,,,,,,,
,,,,,,,,,,,,1,2,001,male,2022-01-05_18h41.18.915,openIAT,2020.1.0rc3,MacIntel,60,l,1,0.547,,,,,,,,0.547,1,0,1,1,3,1,stimuli/white_2.jpg,,l,,,,,,,,
,,,,,,,,,,,,1,2,001,male,2022-01-05_18h41.18.915,openIAT,2020.1.0rc3,MacIntel,60,l,1,0.681,,,,,,,,0.681,1,0,2,2,5,1,stimuli/white_3.jpg,,l,,,,,,,,
,,,,,,,,,,,,1,2,001,male,2022-01-05_18h41.18.915,openIAT,2020.1.0rc3,MacIntel,60,l,1,0.647,,,,,,,,0.647,1,0,3,3,1,1,stimuli/white_1.jpg,,l,,,,,,,,
,,,,,,,,,,,,1,2,001,male,2022-01-05_18h41.18.915,openIAT,2020.1.0rc3,MacIntel,60,a,1,0.537,,,,,,,,0.537,1,0,4,4,2,1,stimuli/black_2.jpg,,a,,,,,,,,
,,,,,,,,,,,,1,2,001,male,2022-01-05_18h41.18.915,openIAT,2020.1.0rc3,MacIntel,60,l,1,0.642,,,,,,,,0.642,1,0,5,5,7,1,stimuli/white_4.jpg,,l,,,,,,,,
,,,,,,,,,,,,1,2,001,male,2022-01-05_18h41.18.915,openIAT,2020.1.0rc3,MacIntel,60,a,1,0.449,,,,,,,,0.449,1,0,6,6,8,1,stimuli/black_5.jpg,,a,,,,,,,,
,,,,,,,,,,,,1,2,001,male,2022-01-05_18h41.18.915,openIAT,2020.1.0rc3,MacIntel,60,l,1,0.589,,,,,,,,0.589,1,0,7,7,9,1,stimuli/white_5.jpg,,l,,,,,,,,
,,,,,,,,,,,,1,2,001,male,2022-01-05_18h41.18.915,openIAT,2020.1.0rc3,MacIntel,60,a,1,0.53,,,,,,,,0.53,1,0,8,8,0,1,stimuli/black_1.jpg,,a,,,,,,,,
,,,,,,,,,,,,1,2,001,male,2022-01-05_18h41.18.915,openIAT,2020.1.0rc3,MacIntel,60,a,1,0.59,,,,,,,,0.59,1,0,9,9,4,1,stimuli/black_3.jpg,,a,,,,,,,,
,,,,,,,,,,,,1,2,001,male,2022-01-05_18h41.18.915,openIAT,2020.1.0rc3,MacIntel,60,,,,,,,,,,,,,,,,,,,,,0,1,1,1,1,incong_train.xlsx,"A = 
Black","L = 
White"
,,,,,,,,,,,,1,2,001,male,2022-01-05_18h41.18.915,openIAT,2020.1.0rc3,MacIntel,60,a,1,0.897,,,,,,,,0.897,1,0,0,0,16,1,stimuli/blank.png,Love,a,,,,,,,,
,,,,,,,,,,,,1,2,001,male,2022-01-05_18h41.18.915,openIAT,2020.1.0rc3,MacIntel,60,l,1,0.606,,,,,,,,0.606,1,0,1,1,9,1,stimuli/white_5.jpg,,l,,,,,,,,
,,,,,,,,,,,,1,2,001,male,2022-01-05_18h41.18.915,openIAT,2020.1.0rc3,MacIntel,60,a,1,0.582,,,,,,,,0.582,1,0,2,2,4,1,stimuli/black_3.jpg,,a,,,,,,,,
,,,,,,,,,,,,1,2,001,male,2022-01-05_18h41.18.915,openIAT,2020.1.0rc3,MacIntel,60,l,1,0.664,,,,,,,,0.664,1,0,3,3,19,1,stimuli/blank.png,Nasty,l,,,,,,,,
,,,,,,,,,,,,1,2,001,male,2022-01-05_18h41.18.915,openIAT,2020.1.0rc3,MacIntel,60,l,1,0.49,,,,,,,,0.49,1,0,4,4,17,1,stimuli/blank.png,Evil,l,,,,,,,,
,,,,,,,,,,,,1,2,001,male,2022-01-05_18h41.18.915,openIAT,2020.1.0rc3,MacIntel,60,a,1,0.523,,,,,,,,0.523,1,0,5,5,2,1,stimuli/black_2.jpg,,a,,,,,,,,
,,,,,,,,,,,,1,2,001,male,2022-01-05_18h41.18.915,openIAT,2020.1.0rc3,MacIntel,60,a,1,0.67,,,,,,,,0.67,1,0,6,6,12,1,stimuli/blank.png,Happy,a,,,,,,,,
,,,,,,,,,,,,1,2,001,male,2022-01-05_18h41.18.915,openIAT,2020.1.0rc3,MacIntel,60,a,1,0.545,,,,,,,,0.545,1,0,7,7,0,1,stimuli/black_1.jpg,,a,,,,,,,,
,,,,,,,,,,,,1,2,001,male,2022-01-05_18h41.18.915,openIAT,2020.1.0rc3,MacIntel,60,a,1,0.527,,,,,,,,0.527,1,0,8,8,6,1,stimuli/black_4.jpg,,a,,,,,,,,
,,,,,,,,,,,,1,2,001,male,2022-01-05_18h41.18.915,openIAT,2020.1.0rc3,MacIntel,60,a,1,0.374,,,,,,,,0.374,1,0,9,9,8,1,stimuli/black_5.jpg,,a,,,,,,,,
,,,,,,,,,,,,1,2,001,male,2022-01-05_18h41.18.915,openIAT,2020.1.0rc3,MacIntel,60,a,0,0.423,,,,,,,,0.423,0,0,10,10,5,1,stimuli/white_3.jpg,,l,,,,,,,,
,,,,,,,,,,,,1,2,001,male,2022-01-05_18h41.18.915,openIAT,2020.1.0rc3,MacIntel,60,l,1,0.645,,,,,,,,0.645,1,0,11,11,11,1,stimuli/blank.png,Bad,l,,,,,,,,
,,,,,,,,,,,,1,2,001,male,2022-01-05_18h41.18.915,openIAT,2020.1.0rc3,MacIntel,60,l,1,0.739,,,,,,,,0.739,1,0,12,12,3,1,stimuli/white_2.jpg,,l,,,,,,,,
,,,,,,,,,,,,1,2,001,male,2022-01-05_18h41.18.915,openIAT,2020.1.0rc3,MacIntel,60,l,1,0.624,,,,,,,,0.624,1,0,13,13,13,1,stimuli/blank.png,Hurt,l,,,,,,,,
,,,,,,,,,,,,1,2,001,male,2022-01-05_18h41.18.915,openIAT,2020.1.0rc3,MacIntel,60,l,0,0.679,,,,,,,,0.679,0,0,14,14,10,1,stimuli/blank.png,Good,a,,,,,,,,
,,,,,,,,,,,,1,2,001,male,2022-01-05_18h41.18.915,openIAT,2020.1.0rc3,MacIntel,60,a,1,6.068,,,,,,,,6.068,1,0,15,15,18,1,stimuli/blank.png,Joy,a,,,,,,,,
