instr_done_touch.x,instr_done_touch.y,instr_done_touch.leftButton,instr_done_touch.midButton,instr_done_touch.rightButton,instruct_pages.thisRepN,instruct_pages.thisTrialN,instruct_pages.thisN,instruct_pages.thisIndex,instruct_pages.ran,pageN,instruct_text,participant,order,session,gender,date,expName,psychopyVersion,OS,frameRate,key_resp.keys,key_resp.corr,key_resp.rt,touch_resp.x,touch_resp.y,touch_resp.leftButton,touch_resp.midButton,touch_resp.rightButton,touch_resp.time,touch_resp.clicked_name,rt,corr,trials.thisRepN,trials.thisTrialN,trials.thisN,trials.thisIndex,trials.ran,stimImage,stimWord,CorrAns,blocks.thisRepN,blocks.thisTrialN,blocks.thisN,blocks.thisIndex,blocks.ran,conds_file,label_left,label_right
0.025,-0.395833333,0,0,0,0,0,0,0,1,1,"You will be presented with words or images to classify into categories using either the 'A' or 'L' key. 
 
Try to go as fast as possible while making as few mistakes as possible. 
",1,2,001,male,2021-08-05_15h42.20.249,openIAT,2020.1.0rc3,MacIntel,60,,,,,,,,,,,,,,,,,,,,,,,,,,,,
0.025,-0.395833333,0,0,0,0,1,1,1,1,2,"Keep in mind: 
 
1) Labels at the top of the screen indicate which catogory goes with which key. 
 
2) Each word or image has a correct catogory classification 
 
3) Keep your index fingers on the A and L keys to enable a rapid response. 
 
4) The test gives no results if you go slow- please try to go as fast as possible 
",1,2,001,male,2021-08-05_15h42.20.249,openIAT,2020.1.0rc3,MacIntel,60,,,,,,,,,,,,,,,,,,,,,,,,,,,,
,,,,,,,,,,,,1,2,001,male,2021-08-05_15h42.20.249,openIAT,2020.1.0rc3,MacIntel,60,a,1,1.436,,,,,,,,1.436,1,0,0,0,0,1,stimuli/blank.png,Good,a,,,,,,,,
,,,,,,,,,,,,1,2,001,male,2021-08-05_15h42.20.249,openIAT,2020.1.0rc3,MacIntel,60,a,1,0.806,,,,,,,,0.806,1,0,1,1,2,1,stimuli/blank.png,Happy,a,,,,,,,,
,,,,,,,,,,,,1,2,001,male,2021-08-05_15h42.20.249,openIAT,2020.1.0rc3,MacIntel,60,l,1,0.693,,,,,,,,0.693,1,0,2,2,1,1,stimuli/blank.png,Bad,l,,,,,,,,
,,,,,,,,,,,,1,2,001,male,2021-08-05_15h42.20.249,openIAT,2020.1.0rc3,MacIntel,60,l,1,0.865,,,,,,,,0.865,1,0,3,3,7,1,stimuli/blank.png,Evil,l,,,,,,,,
,,,,,,,,,,,,1,2,001,male,2021-08-05_15h42.20.249,openIAT,2020.1.0rc3,MacIntel,60,l,1,1.229,,,,,,,,1.229,1,0,4,4,5,1,stimuli/blank.png,Agony,l,,,,,,,,
,,,,,,,,,,,,1,2,001,male,2021-08-05_15h42.20.249,openIAT,2020.1.0rc3,MacIntel,60,a,1,0.845,,,,,,,,0.845,1,0,5,5,8,1,stimuli/blank.png,Joy,a,,,,,,,,
,,,,,,,,,,,,1,2,001,male,2021-08-05_15h42.20.249,openIAT,2020.1.0rc3,MacIntel,60,l,1,2.437,,,,,,,,2.437,1,0,6,6,3,1,stimuli/blank.png,Hurt,l,,,,,,,,
,,,,,,,,,,,,1,2,001,male,2021-08-05_15h42.20.249,openIAT,2020.1.0rc3,MacIntel,60,a,1,1.325,,,,,,,,1.325,1,0,7,7,6,1,stimuli/blank.png,Love,a,,,,,,,,
,,,,,,,,,,,,1,2,001,male,2021-08-05_15h42.20.249,openIAT,2020.1.0rc3,MacIntel,60,a,1,0.863,,,,,,,,0.863,1,0,8,8,4,1,stimuli/blank.png,Pleasure,a,,,,,,,,
,,,,,,,,,,,,1,2,001,male,2021-08-05_15h42.20.249,openIAT,2020.1.0rc3,MacIntel,60,l,1,1.464,,,,,,,,1.464,1,0,9,9,9,1,stimuli/blank.png,Nasty,l,,,,,,,,
,,,,,,,,,,,,1,2,001,male,2021-08-05_15h42.20.249,openIAT,2020.1.0rc3,MacIntel,60,,,,,,,,,,,,,,,,,,,,,0,0,0,0,1,pos_neg_train.xlsx,"A = 
Positive","L = 
Negative"
,,,,,,,,,,,,1,2,001,male,2021-08-05_15h42.20.249,openIAT,2020.1.0rc3,MacIntel,60,a,1,1.927,,,,,,,,1.927,1,0,0,0,4,1,stimuli/black_3.jpg,,a,,,,,,,,
,,,,,,,,,,,,1,2,001,male,2021-08-05_15h42.20.249,openIAT,2020.1.0rc3,MacIntel,60,l,1,1.517,,,,,,,,1.517,1,0,1,1,9,1,stimuli/white_5.jpg,,l,,,,,,,,
,,,,,,,,,,,,1,2,001,male,2021-08-05_15h42.20.249,openIAT,2020.1.0rc3,MacIntel,60,a,0,1.597,,,,,,,,1.597,0,0,2,2,5,1,stimuli/white_3.jpg,,l,,,,,,,,
,,,,,,,,,,,,1,2,001,male,2021-08-05_15h42.20.249,openIAT,2020.1.0rc3,MacIntel,60,a,0,1.242,,,,,,,,1.242,0,0,3,3,3,1,stimuli/white_2.jpg,,l,,,,,,,,
,,,,,,,,,,,,1,2,001,male,2021-08-05_15h42.20.249,openIAT,2020.1.0rc3,MacIntel,60,a,1,1.308,,,,,,,,1.308,1,0,4,4,2,1,stimuli/black_2.jpg,,a,,,,,,,,
,,,,,,,,,,,,1,2,001,male,2021-08-05_15h42.20.249,openIAT,2020.1.0rc3,MacIntel,60,a,1,1.56,,,,,,,,1.56,1,0,5,5,6,1,stimuli/black_4.jpg,,a,,,,,,,,
,,,,,,,,,,,,1,2,001,male,2021-08-05_15h42.20.249,openIAT,2020.1.0rc3,MacIntel,60,a,1,1.026,,,,,,,,1.026,1,0,6,6,8,1,stimuli/black_5.jpg,,a,,,,,,,,
,,,,,,,,,,,,1,2,001,male,2021-08-05_15h42.20.249,openIAT,2020.1.0rc3,MacIntel,60,a,1,0.731,,,,,,,,0.731,1,0,7,7,0,1,stimuli/black_1.jpg,,a,,,,,,,,
,,,,,,,,,,,,1,2,001,male,2021-08-05_15h42.20.249,openIAT,2020.1.0rc3,MacIntel,60,l,1,0.913,,,,,,,,0.913,1,0,8,8,1,1,stimuli/white_1.jpg,,l,,,,,,,,
,,,,,,,,,,,,1,2,001,male,2021-08-05_15h42.20.249,openIAT,2020.1.0rc3,MacIntel,60,l,1,1.029,,,,,,,,1.029,1,0,9,9,7,1,stimuli/white_4.jpg,,l,,,,,,,,
,,,,,,,,,,,,1,2,001,male,2021-08-05_15h42.20.249,openIAT,2020.1.0rc3,MacIntel,60,,,,,,,,,,,,,,,,,,,,,0,1,1,1,1,incong_train.xlsx,"A = 
Black","L = 
White"
