instr_done_touch.x,instr_done_touch.y,instr_done_touch.leftButton,instr_done_touch.midButton,instr_done_touch.rightButton,instr_done_touch.clicked_name,instruct_pages.thisRepN,instruct_pages.thisTrialN,instruct_pages.thisN,instruct_pages.thisIndex,instruct_pages.ran,pageN,instruct_text,participant,order,session,gender,date,expName,psychopyVersion,OS,frameRate,key_resp.keys,key_resp.corr,key_resp.rt,touch_resp.x,touch_resp.y,touch_resp.leftButton,touch_resp.midButton,touch_resp.rightButton,touch_resp.time,touch_resp.clicked_name,rt,corr,trials.thisRepN,trials.thisTrialN,trials.thisN,trials.thisIndex,trials.ran,stimImage,stimWord,CorrAns,blocks.thisRepN,blocks.thisTrialN,blocks.thisN,blocks.thisIndex,blocks.ran,conds_file,label_left,label_right
0.001388889,-0.397222222,1,0,0,instr_done_button,0,0,0,0,1,1,"You will be presented with words or images to classify into categories using either the 'A' or 'L' key. 
 
Try to go as fast as possible while making as few mistakes as possible. 
",1,2,001,male,2021-04-29_17h56.12.097,openIAT,2020.1.0rc3,Win32,60,,,,,,,,,,,,,,,,,,,,,,,,,,,,
0.001388889,-0.397222222,1,0,0,instr_done_button,0,1,1,1,1,2,"Keep in mind: 
 
1) Labels at the top of the screen indicate which catogory goes with which key. 
 
2) Each word or image has a correct catogory classification 
 
3) Keep your index fingers on the A and L keys to enable a rapid response. 
 
4) The test gives no results if you go slow- please try to go as fast as possible 
",1,2,001,male,2021-04-29_17h56.12.097,openIAT,2020.1.0rc3,Win32,60,,,,,,,,,,,,,,,,,,,,,,,,,,,,
,,,,,,,,,,,,,1,2,001,male,2021-04-29_17h56.12.097,openIAT,2020.1.0rc3,Win32,60,a,0,0.375,,,,,,,,0.375,0,0,0,0,3,1,stimuli/blank.png,Hurt,l,,,,,,,,
,,,,,,,,,,,,,1,2,001,male,2021-04-29_17h56.12.097,openIAT,2020.1.0rc3,Win32,60,l,1,0.793,,,,,,,,0.793,1,0,1,1,9,1,stimuli/blank.png,Nasty,l,,,,,,,,
,,,,,,,,,,,,,1,2,001,male,2021-04-29_17h56.12.097,openIAT,2020.1.0rc3,Win32,60,l,1,0.758,,,,,,,,0.758,1,0,2,2,7,1,stimuli/blank.png,Evil,l,,,,,,,,
,,,,,,,,,,,,,1,2,001,male,2021-04-29_17h56.12.097,openIAT,2020.1.0rc3,Win32,60,l,1,0.75,,,,,,,,0.75,1,0,3,3,5,1,stimuli/blank.png,Agony,l,,,,,,,,
,,,,,,,,,,,,,1,2,001,male,2021-04-29_17h56.12.097,openIAT,2020.1.0rc3,Win32,60,l,1,0.577,,,,,,,,0.577,1,0,4,4,1,1,stimuli/blank.png,Bad,l,,,,,,,,
,,,,,,,,,,,,,1,2,001,male,2021-04-29_17h56.12.097,openIAT,2020.1.0rc3,Win32,60,a,1,0.519,,,,,,,,0.519,1,0,5,5,2,1,stimuli/blank.png,Happy,a,,,,,,,,
,,,,,,,,,,,,,1,2,001,male,2021-04-29_17h56.12.097,openIAT,2020.1.0rc3,Win32,60,a,1,0.693,,,,,,,,0.693,1,0,6,6,6,1,stimuli/blank.png,Love,a,,,,,,,,
,,,,,,,,,,,,,1,2,001,male,2021-04-29_17h56.12.097,openIAT,2020.1.0rc3,Win32,60,a,1,0.69,,,,,,,,0.69,1,0,7,7,8,1,stimuli/blank.png,Joy,a,,,,,,,,
,,,,,,,,,,,,,1,2,001,male,2021-04-29_17h56.12.097,openIAT,2020.1.0rc3,Win32,60,a,1,0.543,,,,,,,,0.543,1,0,8,8,0,1,stimuli/blank.png,Good,a,,,,,,,,
,,,,,,,,,,,,,1,2,001,male,2021-04-29_17h56.12.097,openIAT,2020.1.0rc3,Win32,60,a,1,0.642,,,,,,,,0.642,1,0,9,9,4,1,stimuli/blank.png,Pleasure,a,,,,,,,,
,,,,,,,,,,,,,1,2,001,male,2021-04-29_17h56.12.097,openIAT,2020.1.0rc3,Win32,60,,,,,,,,,,,,,,,,,,,,,0,0,0,0,1,pos_neg_train.xlsx,"A = 
Positive","L = 
Negative"
,,,,,,,,,,,,,1,2,001,male,2021-04-29_17h56.12.097,openIAT,2020.1.0rc3,Win32,60,a,1,1.393,,,,,,,,1.393,1,0,0,0,2,1,stimuli/black_2.jpg,,a,,,,,,,,
,,,,,,,,,,,,,1,2,001,male,2021-04-29_17h56.12.097,openIAT,2020.1.0rc3,Win32,60,l,1,0.842,,,,,,,,0.842,1,0,1,1,9,1,stimuli/white_5.jpg,,l,,,,,,,,
,,,,,,,,,,,,,1,2,001,male,2021-04-29_17h56.12.097,openIAT,2020.1.0rc3,Win32,60,l,1,0.719,,,,,,,,0.719,1,0,2,2,5,1,stimuli/white_3.jpg,,l,,,,,,,,
,,,,,,,,,,,,,1,2,001,male,2021-04-29_17h56.12.097,openIAT,2020.1.0rc3,Win32,60,l,0,0.608,,,,,,,,0.608,0,0,3,3,0,1,stimuli/black_1.jpg,,a,,,,,,,,
,,,,,,,,,,,,,1,2,001,male,2021-04-29_17h56.12.097,openIAT,2020.1.0rc3,Win32,60,l,1,0.668,,,,,,,,0.668,1,0,4,4,1,1,stimuli/white_1.jpg,,l,,,,,,,,
,,,,,,,,,,,,,1,2,001,male,2021-04-29_17h56.12.097,openIAT,2020.1.0rc3,Win32,60,a,1,0.467,,,,,,,,0.467,1,0,5,5,8,1,stimuli/black_5.jpg,,a,,,,,,,,
,,,,,,,,,,,,,1,2,001,male,2021-04-29_17h56.12.097,openIAT,2020.1.0rc3,Win32,60,a,1,0.485,,,,,,,,0.485,1,0,6,6,4,1,stimuli/black_3.jpg,,a,,,,,,,,
,,,,,,,,,,,,,1,2,001,male,2021-04-29_17h56.12.097,openIAT,2020.1.0rc3,Win32,60,l,1,0.584,,,,,,,,0.584,1,0,7,7,3,1,stimuli/white_2.jpg,,l,,,,,,,,
,,,,,,,,,,,,,1,2,001,male,2021-04-29_17h56.12.097,openIAT,2020.1.0rc3,Win32,60,l,1,0.66,,,,,,,,0.66,1,0,8,8,7,1,stimuli/white_4.jpg,,l,,,,,,,,
,,,,,,,,,,,,,1,2,001,male,2021-04-29_17h56.12.097,openIAT,2020.1.0rc3,Win32,60,a,1,0.576,,,,,,,,0.576,1,0,9,9,6,1,stimuli/black_4.jpg,,a,,,,,,,,
,,,,,,,,,,,,,1,2,001,male,2021-04-29_17h56.12.097,openIAT,2020.1.0rc3,Win32,60,,,,,,,,,,,,,,,,,,,,,0,1,1,1,1,incong_train.xlsx,"A = 
Black","L = 
White"
