instr_done_touch.x,instr_done_touch.y,instr_done_touch.leftButton,instr_done_touch.midButton,instr_done_touch.rightButton,instr_done_touch.clicked_name,instruct_pages.thisRepN,instruct_pages.thisTrialN,instruct_pages.thisN,instruct_pages.thisIndex,instruct_pages.ran,pageN,instruct_text,participant,order,session,gender,date,expName,psychopyVersion,OS,frameRate,key_resp.keys,key_resp.corr,touch_resp.x,touch_resp.y,touch_resp.leftButton,touch_resp.midButton,touch_resp.rightButton,touch_resp.time,touch_resp.clicked_name,rt,corr,trials.thisRepN,trials.thisTrialN,trials.thisN,trials.thisIndex,trials.ran,stimImage,stimWord,CorrAns,blocks.thisRepN,blocks.thisTrialN,blocks.thisN,blocks.thisIndex,blocks.ran,conds_file,label_left,label_right
-0.001302083,-0.40625,1,0,0,instr_done_button,0,0,0,0,1,1,"You will be presented with words or images to classify into categories using either the 'A' or 'L' key. 
 
Try to go as fast as possible while making as few mistakes as possible. 
",43,2,001,male,2024-03-20_16h48.44.662,openIAT,2020.1.0rc3,Win32,60,,,,,,,,,,,,,,,,,,,,,,,,,,,
-0.002604167,-0.40625,1,0,0,instr_done_button,0,1,1,1,1,2,"Keep in mind: 
 
1) Labels at the top of the screen indicate which catogory goes with which key. 
 
2) Each word or image has a correct catogory classification 
 
3) Keep your index fingers on the A and L keys to enable a rapid response. 
 
4) The test gives no results if you go slow- please try to go as fast as possible 
",43,2,001,male,2024-03-20_16h48.44.662,openIAT,2020.1.0rc3,Win32,60,,,,,,,,,,,,,,,,,,,,,,,,,,,
,,,,,,,,,,,,,43,2,001,male,2024-03-20_16h48.44.662,openIAT,2020.1.0rc3,Win32,60,,0,0.345052083,-0.299479167,1,0,0,0.3777,button_right,0.3777,0,0,0,0,4,1,stimuli/blank.png,Pleasure,a,,,,,,,,
,,,,,,,,,,,,,43,2,001,male,2024-03-20_16h48.44.662,openIAT,2020.1.0rc3,Win32,60,,0,0.345052083,-0.299479167,1,0,0,0.3316,button_right,0.3316,0,0,1,1,0,1,stimuli/blank.png,Good,a,,,,,,,,
,,,,,,,,,,,,,43,2,001,male,2024-03-20_16h48.44.662,openIAT,2020.1.0rc3,Win32,60,,0,0.345052083,-0.299479167,1,0,0,0.3687,button_right,0.3687,1,0,2,2,3,1,stimuli/blank.png,Hurt,l,,,,,,,,
,,,,,,,,,,,,,43,2,001,male,2024-03-20_16h48.44.662,openIAT,2020.1.0rc3,Win32,60,,0,0.3515625,-0.317708333,1,0,0,0.3148,button_right,0.3148,0,0,3,3,6,1,stimuli/blank.png,Love,a,,,,,,,,
,,,,,,,,,,,,,43,2,001,male,2024-03-20_16h48.44.662,openIAT,2020.1.0rc3,Win32,60,,0,0.3515625,-0.317708333,1,0,0,0.335,button_right,0.335,1,0,4,4,7,1,stimuli/blank.png,Evil,l,,,,,,,,
,,,,,,,,,,,,,43,2,001,male,2024-03-20_16h48.44.662,openIAT,2020.1.0rc3,Win32,60,,0,0.3515625,-0.317708333,1,0,0,0.6844,button_right,0.6844,0,0,5,5,8,1,stimuli/blank.png,Joy,a,,,,,,,,
,,,,,,,,,,,,,43,2,001,male,2024-03-20_16h48.44.662,openIAT,2020.1.0rc3,Win32,60,,0,0.34375,-0.321614583,1,0,0,1.3681,button_right,1.3681,1,0,6,6,1,1,stimuli/blank.png,Bad,l,,,,,,,,
,,,,,,,,,,,,,43,2,001,male,2024-03-20_16h48.44.662,openIAT,2020.1.0rc3,Win32,60,,0,0.34375,-0.321614583,1,0,0,0.6487,button_right,0.6487,1,0,7,7,9,1,stimuli/blank.png,Nasty,l,,,,,,,,
,,,,,,,,,,,,,43,2,001,male,2024-03-20_16h48.44.662,openIAT,2020.1.0rc3,Win32,60,,0,0.34375,-0.321614583,1,0,0,0.6187,button_right,0.6187,1,0,8,8,5,1,stimuli/blank.png,Agony,l,,,,,,,,
,,,,,,,,,,,,,43,2,001,male,2024-03-20_16h48.44.662,openIAT,2020.1.0rc3,Win32,60,,0,0.34375,-0.321614583,1,0,0,0.3641,button_right,0.3641,0,0,9,9,2,1,stimuli/blank.png,Happy,a,,,,,,,,
,,,,,,,,,,,,,43,2,001,male,2024-03-20_16h48.44.662,openIAT,2020.1.0rc3,Win32,60,,,,,,,,,,,,,,,,,,,,0,0,0,0,1,pos_neg_train.xlsx,"A = 
Positive","L = 
Negative"
,,,,,,,,,,,,,43,2,001,male,2024-03-20_16h48.44.662,openIAT,2020.1.0rc3,Win32,60,,0,0.34375,-0.321614583,1,0,0,0.3317,button_right,0.3317,1,0,0,0,5,1,stimuli/white_3.jpg,,l,,,,,,,,
,,,,,,,,,,,,,43,2,001,male,2024-03-20_16h48.44.662,openIAT,2020.1.0rc3,Win32,60,,0,0.34375,-0.321614583,1,0,0,0.3484,button_right,0.3484,0,0,1,1,2,1,stimuli/black_2.jpg,,a,,,,,,,,
,,,,,,,,,,,,,43,2,001,male,2024-03-20_16h48.44.662,openIAT,2020.1.0rc3,Win32,60,,0,0.34375,-0.321614583,1,0,0,0.4185,button_right,0.4185,1,0,2,2,3,1,stimuli/white_2.jpg,,l,,,,,,,,
,,,,,,,,,,,,,43,2,001,male,2024-03-20_16h48.44.662,openIAT,2020.1.0rc3,Win32,60,,0,0.34375,-0.321614583,1,0,0,0.6297,button_right,0.6297,0,0,3,3,0,1,stimuli/black_1.jpg,,a,,,,,,,,
,,,,,,,,,,,,,43,2,001,male,2024-03-20_16h48.44.662,openIAT,2020.1.0rc3,Win32,60,,0,0.34375,-0.321614583,1,0,0,0.3805,button_right,0.3805,1,0,4,4,9,1,stimuli/white_5.jpg,,l,,,,,,,,
,,,,,,,,,,,,,43,2,001,male,2024-03-20_16h48.44.662,openIAT,2020.1.0rc3,Win32,60,,0,0.34375,-0.321614583,1,0,0,0.4352,button_right,0.4352,0,0,5,5,4,1,stimuli/black_3.jpg,,a,,,,,,,,
,,,,,,,,,,,,,43,2,001,male,2024-03-20_16h48.44.662,openIAT,2020.1.0rc3,Win32,60,,0,0.34375,-0.3203125,1,0,0,0.5148,button_right,0.5148,0,0,6,6,8,1,stimuli/black_5.jpg,,a,,,,,,,,
,,,,,,,,,,,,,43,2,001,male,2024-03-20_16h48.44.662,openIAT,2020.1.0rc3,Win32,60,,0,0.34375,-0.3203125,1,0,0,0.3819,button_right,0.3819,1,0,7,7,7,1,stimuli/white_4.jpg,,l,,,,,,,,
,,,,,,,,,,,,,43,2,001,male,2024-03-20_16h48.44.662,openIAT,2020.1.0rc3,Win32,60,,0,0.350260417,-0.30078125,1,0,0,0.4314,button_right,0.4314,1,0,8,8,1,1,stimuli/white_1.jpg,,l,,,,,,,,
,,,,,,,,,,,,,43,2,001,male,2024-03-20_16h48.44.662,openIAT,2020.1.0rc3,Win32,60,,0,0.348958333,-0.302083333,1,0,0,0.4323,button_right,0.4323,0,0,9,9,6,1,stimuli/black_4.jpg,,a,,,,,,,,
,,,,,,,,,,,,,43,2,001,male,2024-03-20_16h48.44.662,openIAT,2020.1.0rc3,Win32,60,,,,,,,,,,,,,,,,,,,,0,1,1,1,1,incong_train.xlsx,"A = 
Black","L = 
White"
,,,,,,,,,,,,,43,2,001,male,2024-03-20_16h48.44.662,openIAT,2020.1.0rc3,Win32,60,,0,0.348958333,-0.302083333,1,0,0,0.398,button_right,0.398,1,0,0,0,17,1,stimuli/blank.png,Evil,l,,,,,,,,
,,,,,,,,,,,,,43,2,001,male,2024-03-20_16h48.44.662,openIAT,2020.1.0rc3,Win32,60,,0,0.348958333,-0.302083333,1,0,0,0.4297,button_right,0.4297,0,0,1,1,0,1,stimuli/black_1.jpg,,a,,,,,,,,
,,,,,,,,,,,,,43,2,001,male,2024-03-20_16h48.44.662,openIAT,2020.1.0rc3,Win32,60,,0,0.348958333,-0.302083333,1,0,0,0.4149,button_right,0.4149,1,0,2,2,15,1,stimuli/blank.png,Agony,l,,,,,,,,
,,,,,,,,,,,,,43,2,001,male,2024-03-20_16h48.44.662,openIAT,2020.1.0rc3,Win32,60,,0,0.348958333,-0.302083333,1,0,0,0.4351,button_right,0.4351,1,0,3,3,1,1,stimuli/white_1.jpg,,l,,,,,,,,
,,,,,,,,,,,,,43,2,001,male,2024-03-20_16h48.44.662,openIAT,2020.1.0rc3,Win32,60,,0,0.348958333,-0.302083333,1,0,0,0.5142,button_right,0.5142,1,0,4,4,11,1,stimuli/blank.png,Bad,l,,,,,,,,
,,,,,,,,,,,,,43,2,001,male,2024-03-20_16h48.44.662,openIAT,2020.1.0rc3,Win32,60,,0,0.348958333,-0.3046875,1,0,0,0.4537,button_right,0.4537,1,0,5,5,9,1,stimuli/white_5.jpg,,l,,,,,,,,
,,,,,,,,,,,,,43,2,001,male,2024-03-20_16h48.44.662,openIAT,2020.1.0rc3,Win32,60,,0,0.341145833,-0.290364583,1,0,0,0.3305,button_right,0.3305,1,0,6,6,13,1,stimuli/blank.png,Hurt,l,,,,,,,,
,,,,,,,,,,,,,43,2,001,male,2024-03-20_16h48.44.662,openIAT,2020.1.0rc3,Win32,60,,0,0.352864583,-0.305989583,1,0,0,0.4835,button_right,0.4835,0,0,7,7,16,1,stimuli/blank.png,Love,a,,,,,,,,
,,,,,,,,,,,,,43,2,001,male,2024-03-20_16h48.44.662,openIAT,2020.1.0rc3,Win32,60,,0,0.352864583,-0.305989583,1,0,0,0.3018,button_right,0.3018,0,0,8,8,14,1,stimuli/blank.png,Pleasure,a,,,,,,,,
,,,,,,,,,,,,,43,2,001,male,2024-03-20_16h48.44.662,openIAT,2020.1.0rc3,Win32,60,,0,0.3515625,-0.307291667,1,0,0,0.3991,button_right,0.3991,0,0,9,9,8,1,stimuli/black_5.jpg,,a,,,,,,,,
,,,,,,,,,,,,,43,2,001,male,2024-03-20_16h48.44.662,openIAT,2020.1.0rc3,Win32,60,,0,0.3984375,-0.290364583,1,0,0,0.3336,button_right,0.3336,0,0,10,10,2,1,stimuli/black_2.jpg,,a,,,,,,,,
,,,,,,,,,,,,,43,2,001,male,2024-03-20_16h48.44.662,openIAT,2020.1.0rc3,Win32,60,,0,0.3984375,-0.290364583,1,0,0,0.5356,button_right,0.5356,0,0,11,11,4,1,stimuli/black_3.jpg,,a,,,,,,,,
,,,,,,,,,,,,,43,2,001,male,2024-03-20_16h48.44.662,openIAT,2020.1.0rc3,Win32,60,,0,0.391927083,-0.298177083,1,0,0,0.0489,button_right,0.0489,1,0,12,12,3,1,stimuli/white_2.jpg,,l,,,,,,,,
,,,,,,,,,,,,,43,2,001,male,2024-03-20_16h48.44.662,openIAT,2020.1.0rc3,Win32,60,,0,0.388020833,-0.3046875,1,0,0,0.3477,button_right,0.3477,0,0,13,13,10,1,stimuli/blank.png,Good,a,,,,,,,,
,,,,,,,,,,,,,43,2,001,male,2024-03-20_16h48.44.662,openIAT,2020.1.0rc3,Win32,60,,0,-0.334635417,-0.313802083,1,0,0,0.3034,button_left,0.3034,1,0,14,14,18,1,stimuli/blank.png,Joy,a,,,,,,,,
,,,,,,,,,,,,,43,2,001,male,2024-03-20_16h48.44.662,openIAT,2020.1.0rc3,Win32,60,,0,-0.326822917,-0.309895833,1,0,0,0.3483,button_left,0.3483,0,0,15,15,19,1,stimuli/blank.png,Nasty,l,,,,,,,,
,,,,,,,,,,,,,43,2,001,male,2024-03-20_16h48.44.662,openIAT,2020.1.0rc3,Win32,60,,0,-0.326822917,-0.317708333,1,0,0,0.3316,button_left,0.3316,1,0,16,16,6,1,stimuli/black_4.jpg,,a,,,,,,,,
,,,,,,,,,,,,,43,2,001,male,2024-03-20_16h48.44.662,openIAT,2020.1.0rc3,Win32,60,,0,-0.329427083,-0.32421875,1,0,0,0.3318,button_left,0.3318,1,0,17,17,12,1,stimuli/blank.png,Happy,a,,,,,,,,
,,,,,,,,,,,,,43,2,001,male,2024-03-20_16h48.44.662,openIAT,2020.1.0rc3,Win32,60,,0,-0.319010417,-0.302083333,1,0,0,0.9821,button_left,0.9821,0,0,18,18,5,1,stimuli/white_3.jpg,,l,,,,,,,,
,,,,,,,,,,,,,43,2,001,male,2024-03-20_16h48.44.662,openIAT,2020.1.0rc3,Win32,60,,0,-0.319010417,-0.302083333,1,0,0,0.3809,button_left,0.3809,0,0,19,19,7,1,stimuli/white_4.jpg,,l,,,,,,,,
,,,,,,,,,,,,,43,2,001,male,2024-03-20_16h48.44.662,openIAT,2020.1.0rc3,Win32,60,,,,,,,,,,,,,,,,,,,,0,2,2,2,1,incong_test.xlsx,"A = 
Black or 
Positive","L = 
White or 
Negative"
,,,,,,,,,,,,,43,2,001,male,2024-03-20_16h48.44.662,openIAT,2020.1.0rc3,Win32,60,,0,-0.319010417,-0.302083333,1,0,0,0.3971,button_left,0.3971,1,0,0,0,7,1,stimuli/white_4.jpg,NaN,a,,,,,,,,
,,,,,,,,,,,,,43,2,001,male,2024-03-20_16h48.44.662,openIAT,2020.1.0rc3,Win32,60,,0,-0.319010417,-0.302083333,1,0,0,0.4187,button_left,0.4187,0,0,1,1,2,1,stimuli/black_2.jpg,NaN,l,,,,,,,,
,,,,,,,,,,,,,43,2,001,male,2024-03-20_16h48.44.662,openIAT,2020.1.0rc3,Win32,60,,0,-0.319010417,-0.302083333,1,0,0,0.3968,button_left,0.3968,1,0,2,2,9,1,stimuli/white_5.jpg,NaN,a,,,,,,,,
,,,,,,,,,,,,,43,2,001,male,2024-03-20_16h48.44.662,openIAT,2020.1.0rc3,Win32,60,,0,-0.319010417,-0.302083333,1,0,0,1.0149,button_left,1.0149,0,0,3,3,6,1,stimuli/black_4.jpg,NaN,l,,,,,,,,
,,,,,,,,,,,,,43,2,001,male,2024-03-20_16h48.44.662,openIAT,2020.1.0rc3,Win32,60,,0,-0.319010417,-0.302083333,1,0,0,0.6145,button_left,0.6145,1,0,4,4,3,1,stimuli/white_2.jpg,NaN,a,,,,,,,,
,,,,,,,,,,,,,43,2,001,male,2024-03-20_16h48.44.662,openIAT,2020.1.0rc3,Win32,60,,0,-0.319010417,-0.302083333,1,0,0,2.018,button_left,2.018,1,0,5,5,5,1,stimuli/white_3.jpg,NaN,a,,,,,,,,
,,,,,,,,,,,,,43,2,001,male,2024-03-20_16h48.44.662,openIAT,2020.1.0rc3,Win32,60,,0,-0.319010417,-0.302083333,1,0,0,0.5125,button_left,0.5125,1,0,6,6,1,1,stimuli/white_1.jpg,NaN,a,,,,,,,,
,,,,,,,,,,,,,43,2,001,male,2024-03-20_16h48.44.662,openIAT,2020.1.0rc3,Win32,60,,0,-0.319010417,-0.302083333,1,0,0,0.5964,button_left,0.5964,0,0,7,7,4,1,stimuli/black_3.jpg,NaN,l,,,,,,,,
,,,,,,,,,,,,,43,2,001,male,2024-03-20_16h48.44.662,openIAT,2020.1.0rc3,Win32,60,,0,-0.319010417,-0.302083333,1,0,0,0.4846,button_left,0.4846,0,0,8,8,0,1,stimuli/black_1.jpg,NaN,l,,,,,,,,
,,,,,,,,,,,,,43,2,001,male,2024-03-20_16h48.44.662,openIAT,2020.1.0rc3,Win32,60,,0,-0.319010417,-0.302083333,1,0,0,0.2969,button_left,0.2969,0,0,9,9,8,1,stimuli/black_5.jpg,NaN,l,,,,,,,,
,,,,,,,,,,,,,43,2,001,male,2024-03-20_16h48.44.662,openIAT,2020.1.0rc3,Win32,60,,,,,,,,,,,,,,,,,,,,0,3,3,3,1,cong_train.xlsx,"A = 
White","L = 
Black"
,,,,,,,,,,,,,43,2,001,male,2024-03-20_16h48.44.662,openIAT,2020.1.0rc3,Win32,60,,0,-0.33203125,-0.29296875,1,0,0,0.3985,button_left,0.3985,1,0,0,0,18,1,stimuli/blank.png,Joy,a,,,,,,,,
,,,,,,,,,,,,,43,2,001,male,2024-03-20_16h48.44.662,openIAT,2020.1.0rc3,Win32,60,,0,-0.34765625,-0.294270833,1,0,0,0.4797,button_left,0.4797,0,0,1,1,4,1,stimuli/black_3.jpg,NaN,l,,,,,,,,
,,,,,,,,,,,,,43,2,001,male,2024-03-20_16h48.44.662,openIAT,2020.1.0rc3,Win32,60,,0,-0.354166667,-0.286458333,1,0,0,1.5524,button_left,1.5524,1,0,2,2,16,1,stimuli/blank.png,Love,a,,,,,,,,
,,,,,,,,,,,,,43,2,001,male,2024-03-20_16h48.44.662,openIAT,2020.1.0rc3,Win32,60,,0,-0.354166667,-0.286458333,1,0,0,0.5127,button_left,0.5127,1,0,3,3,7,1,stimuli/white_4.jpg,NaN,a,,,,,,,,
,,,,,,,,,,,,,43,2,001,male,2024-03-20_16h48.44.662,openIAT,2020.1.0rc3,Win32,60,,0,-0.354166667,-0.286458333,1,0,0,0.4187,button_left,0.4187,0,0,4,4,15,1,stimuli/blank.png,Agony,l,,,,,,,,
,,,,,,,,,,,,,43,2,001,male,2024-03-20_16h48.44.662,openIAT,2020.1.0rc3,Win32,60,,0,-0.354166667,-0.286458333,1,0,0,0.4017,button_left,0.4017,0,0,5,5,13,1,stimuli/blank.png,Hurt,l,,,,,,,,
,,,,,,,,,,,,,43,2,001,male,2024-03-20_16h48.44.662,openIAT,2020.1.0rc3,Win32,60,,0,-0.354166667,-0.286458333,1,0,0,0.9131,button_left,0.9131,1,0,6,6,3,1,stimuli/white_2.jpg,NaN,a,,,,,,,,
,,,,,,,,,,,,,43,2,001,male,2024-03-20_16h48.44.662,openIAT,2020.1.0rc3,Win32,60,,0,-0.354166667,-0.286458333,1,0,0,0.3501,button_left,0.3501,1,0,7,7,1,1,stimuli/white_1.jpg,NaN,a,,,,,,,,
,,,,,,,,,,,,,43,2,001,male,2024-03-20_16h48.44.662,openIAT,2020.1.0rc3,Win32,60,,0,-0.354166667,-0.286458333,1,0,0,0.5146,button_left,0.5146,0,0,8,8,17,1,stimuli/blank.png,Evil,l,,,,,,,,
,,,,,,,,,,,,,43,2,001,male,2024-03-20_16h48.44.662,openIAT,2020.1.0rc3,Win32,60,,0,-0.354166667,-0.286458333,1,0,0,0.5782,button_left,0.5782,0,0,9,9,11,1,stimuli/blank.png,Bad,l,,,,,,,,
,,,,,,,,,,,,,43,2,001,male,2024-03-20_16h48.44.662,openIAT,2020.1.0rc3,Win32,60,,0,-0.354166667,-0.286458333,1,0,0,0.3984,button_left,0.3984,0,0,10,10,8,1,stimuli/black_5.jpg,NaN,l,,,,,,,,
,,,,,,,,,,,,,43,2,001,male,2024-03-20_16h48.44.662,openIAT,2020.1.0rc3,Win32,60,,0,-0.354166667,-0.286458333,1,0,0,0.314,button_left,0.314,1,0,11,11,9,1,stimuli/white_5.jpg,NaN,a,,,,,,,,
,,,,,,,,,,,,,43,2,001,male,2024-03-20_16h48.44.662,openIAT,2020.1.0rc3,Win32,60,,0,-0.354166667,-0.286458333,1,0,0,0.3646,button_left,0.3646,1,0,12,12,12,1,stimuli/blank.png,Happy,a,,,,,,,,
,,,,,,,,,,,,,43,2,001,male,2024-03-20_16h48.44.662,openIAT,2020.1.0rc3,Win32,60,,0,-0.361979167,-0.290364583,1,0,0,0.4652,button_left,0.4652,1,0,13,13,5,1,stimuli/white_3.jpg,NaN,a,,,,,,,,
,,,,,,,,,,,,,43,2,001,male,2024-03-20_16h48.44.662,openIAT,2020.1.0rc3,Win32,60,,0,-0.361979167,-0.290364583,1,0,0,0.4021,button_left,0.4021,1,0,14,14,10,1,stimuli/blank.png,Good,a,,,,,,,,
,,,,,,,,,,,,,43,2,001,male,2024-03-20_16h48.44.662,openIAT,2020.1.0rc3,Win32,60,,0,-0.361979167,-0.290364583,1,0,0,0.5358,button_left,0.5358,0,0,15,15,6,1,stimuli/black_4.jpg,NaN,l,,,,,,,,
,,,,,,,,,,,,,43,2,001,male,2024-03-20_16h48.44.662,openIAT,2020.1.0rc3,Win32,60,,0,-0.361979167,-0.290364583,1,0,0,0.4022,button_left,0.4022,0,0,16,16,0,1,stimuli/black_1.jpg,NaN,l,,,,,,,,
,,,,,,,,,,,,,43,2,001,male,2024-03-20_16h48.44.662,openIAT,2020.1.0rc3,Win32,60,,0,-0.361979167,-0.290364583,1,0,0,0.4818,button_left,0.4818,1,0,17,17,14,1,stimuli/blank.png,Pleasure,a,,,,,,,,
,,,,,,,,,,,,,43,2,001,male,2024-03-20_16h48.44.662,openIAT,2020.1.0rc3,Win32,60,,0,-0.361979167,-0.290364583,1,0,0,0.532,button_left,0.532,0,0,18,18,2,1,stimuli/black_2.jpg,NaN,l,,,,,,,,
,,,,,,,,,,,,,43,2,001,male,2024-03-20_16h48.44.662,openIAT,2020.1.0rc3,Win32,60,,0,-0.358072917,-0.2890625,1,0,0,0.336,button_left,0.336,0,0,19,19,19,1,stimuli/blank.png,Nasty,l,,,,,,,,
