instr_done_touch.x,instr_done_touch.y,instr_done_touch.leftButton,instr_done_touch.midButton,instr_done_touch.rightButton,instr_done_touch.clicked_name,instruct_pages.thisRepN,instruct_pages.thisTrialN,instruct_pages.thisN,instruct_pages.thisIndex,instruct_pages.ran,pageN,instruct_text,participant,order,session,gender,date,expName,psychopyVersion,OS,frameRate,key_resp.keys,key_resp.corr,key_resp.rt,touch_resp.x,touch_resp.y,touch_resp.leftButton,touch_resp.midButton,touch_resp.rightButton,touch_resp.time,touch_resp.clicked_name,rt,corr,trials.thisRepN,trials.thisTrialN,trials.thisN,trials.thisIndex,trials.ran,stimImage,stimWord,CorrAns,blocks.thisRepN,blocks.thisTrialN,blocks.thisN,blocks.thisIndex,blocks.ran,conds_file,label_left,label_right
0.029166667,-0.445833333,1,0,0,instr_done_button,0,0,0,0,1,1,"You will be presented with words or images to classify into categories using either the 'A' or 'L' key. 
 
Try to go as fast as possible while making as few mistakes as possible. 
",a,1,001,male,2023-08-17_07h53.41.101,openIAT,2020.1.0rc3,Win32,60,,,,,,,,,,,,,,,,,,,,,,,,,,,,
0.028472222,-0.43125,1,0,0,instr_done_button,0,1,1,1,1,2,"Keep in mind: 
 
1) Labels at the top of the screen indicate which catogory goes with which key. 
 
2) Each word or image has a correct catogory classification 
 
3) Keep your index fingers on the A and L keys to enable a rapid response. 
 
4) The test gives no results if you go slow- please try to go as fast as possible 
",a,1,001,male,2023-08-17_07h53.41.101,openIAT,2020.1.0rc3,Win32,60,,,,,,,,,,,,,,,,,,,,,,,,,,,,
,,,,,,,,,,,,,a,1,001,male,2023-08-17_07h53.41.101,openIAT,2020.1.0rc3,Win32,60,l,1,2.4247,,,,,,,,2.4247,1,0,0,0,5,1,stimuli/blank.png,Agony,l,,,,,,,,
,,,,,,,,,,,,,a,1,001,male,2023-08-17_07h53.41.101,openIAT,2020.1.0rc3,Win32,60,a,0,0.8198,,,,,,,,0.8198,0,0,1,1,7,1,stimuli/blank.png,Evil,l,,,,,,,,
,,,,,,,,,,,,,a,1,001,male,2023-08-17_07h53.41.101,openIAT,2020.1.0rc3,Win32,60,l,1,0.8198,,,,,,,,0.8198,1,0,2,2,1,1,stimuli/blank.png,Bad,l,,,,,,,,
,,,,,,,,,,,,,a,1,001,male,2023-08-17_07h53.41.101,openIAT,2020.1.0rc3,Win32,60,a,1,1.1039,,,,,,,,1.1039,1,0,3,3,2,1,stimuli/blank.png,Happy,a,,,,,,,,
,,,,,,,,,,,,,a,1,001,male,2023-08-17_07h53.41.101,openIAT,2020.1.0rc3,Win32,60,a,1,1.1712,,,,,,,,1.1712,1,0,4,4,6,1,stimuli/blank.png,Love,a,,,,,,,,
,,,,,,,,,,,,,a,1,001,male,2023-08-17_07h53.41.101,openIAT,2020.1.0rc3,Win32,60,a,1,1.5885,,,,,,,,1.5885,1,0,5,5,0,1,stimuli/blank.png,Good,a,,,,,,,,
,,,,,,,,,,,,,a,1,001,male,2023-08-17_07h53.41.101,openIAT,2020.1.0rc3,Win32,60,l,1,1.0874,,,,,,,,1.0874,1,0,6,6,3,1,stimuli/blank.png,Hurt,l,,,,,,,,
,,,,,,,,,,,,,a,1,001,male,2023-08-17_07h53.41.101,openIAT,2020.1.0rc3,Win32,60,a,1,1.4283,,,,,,,,1.4283,1,0,7,7,4,1,stimuli/blank.png,Pleasure,a,,,,,,,,
,,,,,,,,,,,,,a,1,001,male,2023-08-17_07h53.41.101,openIAT,2020.1.0rc3,Win32,60,a,0,1.0537,,,,,,,,1.0537,0,0,8,8,9,1,stimuli/blank.png,Nasty,l,,,,,,,,
,,,,,,,,,,,,,a,1,001,male,2023-08-17_07h53.41.101,openIAT,2020.1.0rc3,Win32,60,a,1,15222.8696,,,,,,,,15222.8696,1,0,9,9,8,1,stimuli/blank.png,Joy,a,,,,,,,,
,,,,,,,,,,,,,a,1,001,male,2023-08-17_07h53.41.101,openIAT,2020.1.0rc3,Win32,60,,,,,,,,,,,,,,,,,,,,,0,0,0,0,1,pos_neg_train.xlsx,"A = 
Positive","L = 
Negative"
,,,,,,,,,,,,,a,1,001,male,2023-08-17_07h53.41.101,openIAT,2020.1.0rc3,Win32,60,l,1,1.6835,,,,,,,,1.6835,1,0,0,0,8,1,stimuli/black_5.jpg,NaN,l,,,,,,,,
,,,,,,,,,,,,,a,1,001,male,2023-08-17_07h53.41.101,openIAT,2020.1.0rc3,Win32,60,l,1,1.9513,,,,,,,,1.9513,1,0,1,1,2,1,stimuli/black_2.jpg,NaN,l,,,,,,,,
,,,,,,,,,,,,,a,1,001,male,2023-08-17_07h53.41.101,openIAT,2020.1.0rc3,Win32,60,l,1,0.664,,,,,,,,0.664,1,0,2,2,0,1,stimuli/black_1.jpg,NaN,l,,,,,,,,
,,,,,,,,,,,,,a,1,001,male,2023-08-17_07h53.41.101,openIAT,2020.1.0rc3,Win32,60,l,0,1.032,,,,,,,,1.032,0,0,3,3,5,1,stimuli/white_3.jpg,NaN,a,,,,,,,,
,,,,,,,,,,,,,a,1,001,male,2023-08-17_07h53.41.101,openIAT,2020.1.0rc3,Win32,60,a,1,0.9649,,,,,,,,0.9649,1,0,4,4,3,1,stimuli/white_2.jpg,NaN,a,,,,,,,,
,,,,,,,,,,,,,a,1,001,male,2023-08-17_07h53.41.101,openIAT,2020.1.0rc3,Win32,60,a,1,0.851,,,,,,,,0.851,1,0,5,5,1,1,stimuli/white_1.jpg,NaN,a,,,,,,,,
,,,,,,,,,,,,,a,1,001,male,2023-08-17_07h53.41.101,openIAT,2020.1.0rc3,Win32,60,a,1,0.9284,,,,,,,,0.9284,1,0,6,6,9,1,stimuli/white_5.jpg,NaN,a,,,,,,,,
,,,,,,,,,,,,,a,1,001,male,2023-08-17_07h53.41.101,openIAT,2020.1.0rc3,Win32,60,a,1,0.5014,,,,,,,,0.5014,1,0,7,7,7,1,stimuli/white_4.jpg,NaN,a,,,,,,,,
,,,,,,,,,,,,,a,1,001,male,2023-08-17_07h53.41.101,openIAT,2020.1.0rc3,Win32,60,l,1,0.6021,,,,,,,,0.6021,1,0,8,8,6,1,stimuli/black_4.jpg,NaN,l,,,,,,,,
,,,,,,,,,,,,,a,1,001,male,2023-08-17_07h53.41.101,openIAT,2020.1.0rc3,Win32,60,a,0,0.8183,,,,,,,,0.8183,0,0,9,9,4,1,stimuli/black_3.jpg,NaN,l,,,,,,,,
,,,,,,,,,,,,,a,1,001,male,2023-08-17_07h53.41.101,openIAT,2020.1.0rc3,Win32,60,,,,,,,,,,,,,,,,,,,,,0,1,1,1,1,cong_train.xlsx,"A = 
White","L = 
Black"
,,,,,,,,,,,,,a,1,001,male,2023-08-17_07h53.41.101,openIAT,2020.1.0rc3,Win32,60,a,1,3.5226,,,,,,,,3.5226,1,0,0,0,14,1,stimuli/blank.png,Pleasure,a,,,,,,,,
,,,,,,,,,,,,,a,1,001,male,2023-08-17_07h53.41.101,openIAT,2020.1.0rc3,Win32,60,l,1,2.7493,,,,,,,,2.7493,1,0,1,1,0,1,stimuli/black_1.jpg,NaN,l,,,,,,,,
,,,,,,,,,,,,,a,1,001,male,2023-08-17_07h53.41.101,openIAT,2020.1.0rc3,Win32,60,a,1,2.0098,,,,,,,,2.0098,1,0,2,2,10,1,stimuli/blank.png,Good,a,,,,,,,,
,,,,,,,,,,,,,a,1,001,male,2023-08-17_07h53.41.101,openIAT,2020.1.0rc3,Win32,60,l,1,1.5393,,,,,,,,1.5393,1,0,3,3,13,1,stimuli/blank.png,Hurt,l,,,,,,,,
,,,,,,,,,,,,,a,1,001,male,2023-08-17_07h53.41.101,openIAT,2020.1.0rc3,Win32,60,a,1,1.2449,,,,,,,,1.2449,1,0,4,4,9,1,stimuli/white_5.jpg,NaN,a,,,,,,,,
,,,,,,,,,,,,,a,1,001,male,2023-08-17_07h53.41.101,openIAT,2020.1.0rc3,Win32,60,l,1,1.1438,,,,,,,,1.1438,1,0,5,5,11,1,stimuli/blank.png,Bad,l,,,,,,,,
,,,,,,,,,,,,,a,1,001,male,2023-08-17_07h53.41.101,openIAT,2020.1.0rc3,Win32,60,a,0,1.2329,,,,,,,,1.2329,0,0,6,6,15,1,stimuli/blank.png,Agony,l,,,,,,,,
,,,,,,,,,,,,,a,1,001,male,2023-08-17_07h53.41.101,openIAT,2020.1.0rc3,Win32,60,l,1,0.9272,,,,,,,,0.9272,1,0,7,7,8,1,stimuli/black_5.jpg,NaN,l,,,,,,,,
,,,,,,,,,,,,,a,1,001,male,2023-08-17_07h53.41.101,openIAT,2020.1.0rc3,Win32,60,l,1,1.0229,,,,,,,,1.0229,1,0,8,8,6,1,stimuli/black_4.jpg,NaN,l,,,,,,,,
