instr_done_touch.x,instr_done_touch.y,instr_done_touch.leftButton,instr_done_touch.midButton,instr_done_touch.rightButton,instr_done_touch.clicked_name,instruct_pages.thisRepN,instruct_pages.thisTrialN,instruct_pages.thisN,instruct_pages.thisIndex,instruct_pages.ran,pageN,instruct_text,participant,order,session,gender,date,expName,psychopyVersion,OS,frameRate,key_resp.keys,key_resp.corr,touch_resp.x,touch_resp.y,touch_resp.leftButton,touch_resp.midButton,touch_resp.rightButton,touch_resp.time,touch_resp.clicked_name,rt,corr,trials.thisRepN,trials.thisTrialN,trials.thisN,trials.thisIndex,trials.ran,stimImage,stimWord,CorrAns,blocks.thisRepN,blocks.thisTrialN,blocks.thisN,blocks.thisIndex,blocks.ran,conds_file,label_left,label_right
-0.000925926,-0.398148148,1,0,0,instr_done_button,0,0,0,0,1,1,"You will be presented with words or images to classify into categories using either the 'A' or 'L' key. 
 
Try to go as fast as possible while making as few mistakes as possible. 
",adasdf,1,001,male,2022-07-10_09h50.07.511,openIAT,2020.1.0rc3,Win32,60,,,,,,,,,,,,,,,,,,,,,,,,,,,
-0.001851852,-0.398148148,1,0,0,instr_done_button,0,1,1,1,1,2,"Keep in mind: 
 
1) Labels at the top of the screen indicate which catogory goes with which key. 
 
2) Each word or image has a correct catogory classification 
 
3) Keep your index fingers on the A and L keys to enable a rapid response. 
 
4) The test gives no results if you go slow- please try to go as fast as possible 
",adasdf,1,001,male,2022-07-10_09h50.07.511,openIAT,2020.1.0rc3,Win32,60,,,,,,,,,,,,,,,,,,,,,,,,,,,
,,,,,,,,,,,,,adasdf,1,001,male,2022-07-10_09h50.07.511,openIAT,2020.1.0rc3,Win32,60,,0,0.287037037,-0.203703704,1,0,0,1.2665,button_right,1.2665,1,0,0,0,3,1,stimuli/blank.png,Hurt,l,,,,,,,,
,,,,,,,,,,,,,adasdf,1,001,male,2022-07-10_09h50.07.511,openIAT,2020.1.0rc3,Win32,60,,0,0.414814815,-0.262037037,1,0,0,1.4841,button_right,1.4841,0,0,1,1,6,1,stimuli/blank.png,Love,a,,,,,,,,
,,,,,,,,,,,,,adasdf,1,001,male,2022-07-10_09h50.07.511,openIAT,2020.1.0rc3,Win32,60,,0,0.419444444,-0.253703704,1,0,0,1.4665,button_right,1.4665,0,0,2,2,8,1,stimuli/blank.png,Joy,a,,,,,,,,
,,,,,,,,,,,,,adasdf,1,001,male,2022-07-10_09h50.07.511,openIAT,2020.1.0rc3,Win32,60,,0,0.476851852,-0.275,1,0,0,2.3681,button_right,2.3681,0,0,3,3,2,1,stimuli/blank.png,Happy,a,,,,,,,,
,,,,,,,,,,,,,adasdf,1,001,male,2022-07-10_09h50.07.511,openIAT,2020.1.0rc3,Win32,60,,0,0.350925926,-0.297222222,1,0,0,1.2994,button_right,1.2994,1,0,4,4,7,1,stimuli/blank.png,Evil,l,,,,,,,,
,,,,,,,,,,,,,adasdf,1,001,male,2022-07-10_09h50.07.511,openIAT,2020.1.0rc3,Win32,60,,0,0.500925926,-0.275,1,0,0,1.935,button_right,1.935,1,0,5,5,1,1,stimuli/blank.png,Bad,l,,,,,,,,
,,,,,,,,,,,,,adasdf,1,001,male,2022-07-10_09h50.07.511,openIAT,2020.1.0rc3,Win32,60,,0,0.437962963,-0.278703704,1,0,0,1.3674,button_right,1.3674,0,0,6,6,4,1,stimuli/blank.png,Pleasure,a,,,,,,,,
,,,,,,,,,,,,,adasdf,1,001,male,2022-07-10_09h50.07.511,openIAT,2020.1.0rc3,Win32,60,,0,0.441666667,-0.29537037,1,0,0,1.2008,button_right,1.2008,1,0,7,7,9,1,stimuli/blank.png,Nasty,l,,,,,,,,
,,,,,,,,,,,,,adasdf,1,001,male,2022-07-10_09h50.07.511,openIAT,2020.1.0rc3,Win32,60,,0,-0.305555556,-0.275,1,0,0,1.7519,button_left,1.7519,0,0,8,8,5,1,stimuli/blank.png,Agony,l,,,,,,,,
,,,,,,,,,,,,,adasdf,1,001,male,2022-07-10_09h50.07.511,openIAT,2020.1.0rc3,Win32,60,,0,-0.217592593,-0.282407407,1,0,0,1.384,button_left,1.384,1,0,9,9,0,1,stimuli/blank.png,Good,a,,,,,,,,
,,,,,,,,,,,,,adasdf,1,001,male,2022-07-10_09h50.07.511,openIAT,2020.1.0rc3,Win32,60,,,,,,,,,,,,,,,,,,,,0,0,0,0,1,pos_neg_train.xlsx,"A = 
Positive","L = 
Negative"
,,,,,,,,,,,,,adasdf,1,001,male,2022-07-10_09h50.07.511,openIAT,2020.1.0rc3,Win32,60,,0,-0.272222222,-0.300925926,1,0,0,4.0879,button_left,4.0879,1,0,0,0,5,1,stimuli/white_3.jpg,NaN,a,,,,,,,,
,,,,,,,,,,,,,adasdf,1,001,male,2022-07-10_09h50.07.511,openIAT,2020.1.0rc3,Win32,60,,0,0.294444444,-0.281481481,1,0,0,1.0833,button_right,1.0833,1,0,1,1,6,1,stimuli/black_4.jpg,NaN,l,,,,,,,,
,,,,,,,,,,,,,adasdf,1,001,male,2022-07-10_09h50.07.511,openIAT,2020.1.0rc3,Win32,60,,0,0.344444444,-0.266666667,1,0,0,1.3511,button_right,1.3511,1,0,2,2,8,1,stimuli/black_5.jpg,NaN,l,,,,,,,,
,,,,,,,,,,,,,adasdf,1,001,male,2022-07-10_09h50.07.511,openIAT,2020.1.0rc3,Win32,60,,0,-0.340740741,-0.265740741,1,0,0,1.4525,button_left,1.4525,1,0,3,3,3,1,stimuli/white_2.jpg,NaN,a,,,,,,,,
,,,,,,,,,,,,,adasdf,1,001,male,2022-07-10_09h50.07.511,openIAT,2020.1.0rc3,Win32,60,,0,-0.350925926,-0.301851852,1,0,0,2.9854,button_left,2.9854,1,0,4,4,7,1,stimuli/white_4.jpg,NaN,a,,,,,,,,
,,,,,,,,,,,,,adasdf,1,001,male,2022-07-10_09h50.07.511,openIAT,2020.1.0rc3,Win32,60,,0,0.419444444,-0.265740741,1,0,0,1.4004,button_right,1.4004,1,0,5,5,0,1,stimuli/black_1.jpg,NaN,l,,,,,,,,
,,,,,,,,,,,,,adasdf,1,001,male,2022-07-10_09h50.07.511,openIAT,2020.1.0rc3,Win32,60,,0,-0.284259259,-0.250925926,1,0,0,1.7507,button_left,1.7507,1,0,6,6,1,1,stimuli/white_1.jpg,NaN,a,,,,,,,,
,,,,,,,,,,,,,adasdf,1,001,male,2022-07-10_09h50.07.511,openIAT,2020.1.0rc3,Win32,60,,0,0.403703704,-0.287962963,1,0,0,1.0171,button_right,1.0171,1,0,7,7,2,1,stimuli/black_2.jpg,NaN,l,,,,,,,,
,,,,,,,,,,,,,adasdf,1,001,male,2022-07-10_09h50.07.511,openIAT,2020.1.0rc3,Win32,60,,0,-0.282407407,-0.280555556,1,0,0,3.7205,button_left,3.7205,1,0,8,8,9,1,stimuli/white_5.jpg,NaN,a,,,,,,,,
,,,,,,,,,,,,,adasdf,1,001,male,2022-07-10_09h50.07.511,openIAT,2020.1.0rc3,Win32,60,,0,0.361111111,-0.240740741,1,0,0,0.9678,button_right,0.9678,1,0,9,9,4,1,stimuli/black_3.jpg,NaN,l,,,,,,,,
,,,,,,,,,,,,,adasdf,1,001,male,2022-07-10_09h50.07.511,openIAT,2020.1.0rc3,Win32,60,,,,,,,,,,,,,,,,,,,,0,1,1,1,1,cong_train.xlsx,"A = 
White","L = 
Black"
,,,,,,,,,,,,,adasdf,1,001,male,2022-07-10_09h50.07.511,openIAT,2020.1.0rc3,Win32,60,,0,-0.22962963,-0.257407407,1,0,0,6.7562,button_left,6.7562,1,0,0,0,1,1,stimuli/white_1.jpg,NaN,a,,,,,,,,
,,,,,,,,,,,,,adasdf,1,001,male,2022-07-10_09h50.07.511,openIAT,2020.1.0rc3,Win32,60,,0,0.023148148,-0.237037037,1,0,0,4.6533,button_right,4.6533,0,0,1,1,16,1,stimuli/blank.png,Love,a,,,,,,,,
,,,,,,,,,,,,,adasdf,1,001,male,2022-07-10_09h50.07.511,openIAT,2020.1.0rc3,Win32,60,,0,-0.287037037,-0.260185185,1,0,0,5.3535,button_left,5.3535,1,0,2,2,9,1,stimuli/white_5.jpg,NaN,a,,,,,,,,
,,,,,,,,,,,,,adasdf,1,001,male,2022-07-10_09h50.07.511,openIAT,2020.1.0rc3,Win32,60,,0,0.337962963,-0.305555556,1,0,0,0.9837,button_right,0.9837,1,0,3,3,4,1,stimuli/black_3.jpg,NaN,l,,,,,,,,
,,,,,,,,,,,,,adasdf,1,001,male,2022-07-10_09h50.07.511,openIAT,2020.1.0rc3,Win32,60,,0,0.37962963,-0.27962963,1,0,0,0.8506,button_right,0.8506,1,0,4,4,0,1,stimuli/black_1.jpg,NaN,l,,,,,,,,
,,,,,,,,,,,,,adasdf,1,001,male,2022-07-10_09h50.07.511,openIAT,2020.1.0rc3,Win32,60,,0,0.310185185,-0.280555556,1,0,0,3.1027,button_right,3.1027,1,0,5,5,17,1,stimuli/blank.png,Evil,l,,,,,,,,
,,,,,,,,,,,,,adasdf,1,001,male,2022-07-10_09h50.07.511,openIAT,2020.1.0rc3,Win32,60,,0,0.32037037,-0.27037037,1,0,0,7.9263,button_right,7.9263,1,0,6,6,11,1,stimuli/blank.png,Bad,l,,,,,,,,
,,,,,,,,,,,,,adasdf,1,001,male,2022-07-10_09h50.07.511,openIAT,2020.1.0rc3,Win32,60,,0,0.280555556,-0.262037037,1,0,0,1.8347,button_right,1.8347,1,0,7,7,2,1,stimuli/black_2.jpg,NaN,l,,,,,,,,
,,,,,,,,,,,,,adasdf,1,001,male,2022-07-10_09h50.07.511,openIAT,2020.1.0rc3,Win32,60,,0,-0.298148148,-0.280555556,1,0,0,1.3337,button_left,1.3337,0,0,8,8,15,1,stimuli/blank.png,Agony,l,,,,,,,,
,,,,,,,,,,,,,adasdf,1,001,male,2022-07-10_09h50.07.511,openIAT,2020.1.0rc3,Win32,60,,0,0.316666667,-0.275925926,1,0,0,2.7188,button_right,2.7188,0,0,9,9,14,1,stimuli/blank.png,Pleasure,a,,,,,,,,
,,,,,,,,,,,,,adasdf,1,001,male,2022-07-10_09h50.07.511,openIAT,2020.1.0rc3,Win32,60,,0,0.283333333,-0.281481481,1,0,0,0.8677,button_right,0.8677,1,0,10,10,19,1,stimuli/blank.png,Nasty,l,,,,,,,,
,,,,,,,,,,,,,adasdf,1,001,male,2022-07-10_09h50.07.511,openIAT,2020.1.0rc3,Win32,60,,0,0.317592593,-0.291666667,1,0,0,0.934,button_right,0.934,1,0,11,11,8,1,stimuli/black_5.jpg,NaN,l,,,,,,,,
,,,,,,,,,,,,,adasdf,1,001,male,2022-07-10_09h50.07.511,openIAT,2020.1.0rc3,Win32,60,,0,0.303703704,-0.294444444,1,0,0,1.0168,button_right,1.0168,1,0,12,12,6,1,stimuli/black_4.jpg,NaN,l,,,,,,,,
,,,,,,,,,,,,,adasdf,1,001,male,2022-07-10_09h50.07.511,openIAT,2020.1.0rc3,Win32,60,,0,0.349074074,-0.290740741,1,0,0,1.3851,button_right,1.3851,0,0,13,13,18,1,stimuli/blank.png,Joy,a,,,,,,,,
,,,,,,,,,,,,,adasdf,1,001,male,2022-07-10_09h50.07.511,openIAT,2020.1.0rc3,Win32,60,,0,-0.276851852,-0.299074074,1,0,0,0.9507,button_left,0.9507,1,0,14,14,5,1,stimuli/white_3.jpg,NaN,a,,,,,,,,
,,,,,,,,,,,,,adasdf,1,001,male,2022-07-10_09h50.07.511,openIAT,2020.1.0rc3,Win32,60,,0,-0.301851852,-0.283333333,1,0,0,2.1679,button_left,2.1679,1,0,15,15,3,1,stimuli/white_2.jpg,NaN,a,,,,,,,,
,,,,,,,,,,,,,adasdf,1,001,male,2022-07-10_09h50.07.511,openIAT,2020.1.0rc3,Win32,60,,0,0.356481481,-0.29537037,1,0,0,1.6017,button_right,1.6017,0,0,16,16,12,1,stimuli/blank.png,Happy,a,,,,,,,,
,,,,,,,,,,,,,adasdf,1,001,male,2022-07-10_09h50.07.511,openIAT,2020.1.0rc3,Win32,60,,0,-0.321296296,-0.299074074,1,0,0,1.3342,button_left,1.3342,0,0,17,17,13,1,stimuli/blank.png,Hurt,l,,,,,,,,
,,,,,,,,,,,,,adasdf,1,001,male,2022-07-10_09h50.07.511,openIAT,2020.1.0rc3,Win32,60,,0,-0.230555556,-0.274074074,1,0,0,1.7849,button_left,1.7849,1,0,18,18,7,1,stimuli/white_4.jpg,NaN,a,,,,,,,,
,,,,,,,,,,,,,adasdf,1,001,male,2022-07-10_09h50.07.511,openIAT,2020.1.0rc3,Win32,60,,0,-0.277777778,-0.256481481,1,0,0,1.201,button_left,1.201,1,0,19,19,10,1,stimuli/blank.png,Good,a,,,,,,,,
,,,,,,,,,,,,,adasdf,1,001,male,2022-07-10_09h50.07.511,openIAT,2020.1.0rc3,Win32,60,,,,,,,,,,,,,,,,,,,,0,2,2,2,1,cong_test.xlsx,"A = 
White or 
Positive","L = 
Black or 
Negative"
,,,,,,,,,,,,,adasdf,1,001,male,2022-07-10_09h50.07.511,openIAT,2020.1.0rc3,Win32,60,,0,-0.226851852,-0.27037037,1,0,0,2.1004,button_left,2.1004,1,0,0,0,8,1,stimuli/black_5.jpg,,a,,,,,,,,
,,,,,,,,,,,,,adasdf,1,001,male,2022-07-10_09h50.07.511,openIAT,2020.1.0rc3,Win32,60,,0,-0.262037037,-0.27962963,1,0,0,1.1834,button_left,1.1834,1,0,1,1,6,1,stimuli/black_4.jpg,,a,,,,,,,,
,,,,,,,,,,,,,adasdf,1,001,male,2022-07-10_09h50.07.511,openIAT,2020.1.0rc3,Win32,60,,0,0.355555556,-0.273148148,1,0,0,1.2676,button_right,1.2676,1,0,2,2,3,1,stimuli/white_2.jpg,,l,,,,,,,,
,,,,,,,,,,,,,adasdf,1,001,male,2022-07-10_09h50.07.511,openIAT,2020.1.0rc3,Win32,60,,0,0.425925926,-0.290740741,1,0,0,1.2019,button_right,1.2019,1,0,3,3,1,1,stimuli/white_1.jpg,,l,,,,,,,,
,,,,,,,,,,,,,adasdf,1,001,male,2022-07-10_09h50.07.511,openIAT,2020.1.0rc3,Win32,60,,0,-0.301851852,-0.298148148,1,0,0,1.1013,button_left,1.1013,1,0,4,4,2,1,stimuli/black_2.jpg,,a,,,,,,,,
,,,,,,,,,,,,,adasdf,1,001,male,2022-07-10_09h50.07.511,openIAT,2020.1.0rc3,Win32,60,,0,0.294444444,-0.289814815,1,0,0,24.1242,button_right,24.1242,1,0,5,5,5,1,stimuli/white_3.jpg,,l,,,,,,,,
,,,,,,,,,,,,,adasdf,1,001,male,2022-07-10_09h50.07.511,openIAT,2020.1.0rc3,Win32,60,,0,-0.362962963,-0.334259259,1,0,0,0.85,button_left,0.85,1,0,6,6,4,1,stimuli/black_3.jpg,,a,,,,,,,,
,,,,,,,,,,,,,adasdf,1,001,male,2022-07-10_09h50.07.511,openIAT,2020.1.0rc3,Win32,60,,0,0.353703704,-0.268518519,1,0,0,0.9836,button_right,0.9836,1,0,7,7,7,1,stimuli/white_4.jpg,,l,,,,,,,,
,,,,,,,,,,,,,adasdf,1,001,male,2022-07-10_09h50.07.511,openIAT,2020.1.0rc3,Win32,60,,0,-0.292592593,-0.3,1,0,0,0.784,button_left,0.784,1,0,8,8,0,1,stimuli/black_1.jpg,,a,,,,,,,,
,,,,,,,,,,,,,adasdf,1,001,male,2022-07-10_09h50.07.511,openIAT,2020.1.0rc3,Win32,60,,0,0.325925926,-0.278703704,1,0,0,1.1668,button_right,1.1668,1,0,9,9,9,1,stimuli/white_5.jpg,,l,,,,,,,,
,,,,,,,,,,,,,adasdf,1,001,male,2022-07-10_09h50.07.511,openIAT,2020.1.0rc3,Win32,60,,,,,,,,,,,,,,,,,,,,0,3,3,3,1,incong_train.xlsx,"A = 
Black","L = 
White"
,,,,,,,,,,,,,adasdf,1,001,male,2022-07-10_09h50.07.511,openIAT,2020.1.0rc3,Win32,60,,0,-0.291666667,-0.284259259,1,0,0,0.9666,button_left,0.9666,1,0,0,0,8,1,stimuli/black_5.jpg,,a,,,,,,,,
,,,,,,,,,,,,,adasdf,1,001,male,2022-07-10_09h50.07.511,openIAT,2020.1.0rc3,Win32,60,,0,0.402777778,-0.266666667,1,0,0,4.5216,button_right,4.5216,0,0,1,1,16,1,stimuli/blank.png,Love,a,,,,,,,,
,,,,,,,,,,,,,adasdf,1,001,male,2022-07-10_09h50.07.511,openIAT,2020.1.0rc3,Win32,60,,0,-0.287962963,-0.301851852,1,0,0,4.3042,button_left,4.3042,1,0,2,2,10,1,stimuli/blank.png,Good,a,,,,,,,,
,,,,,,,,,,,,,adasdf,1,001,male,2022-07-10_09h50.07.511,openIAT,2020.1.0rc3,Win32,60,,0,0.234259259,-0.300925926,1,0,0,1.6347,button_right,1.6347,1,0,3,3,1,1,stimuli/white_1.jpg,,l,,,,,,,,
,,,,,,,,,,,,,adasdf,1,001,male,2022-07-10_09h50.07.511,openIAT,2020.1.0rc3,Win32,60,,0,-0.283333333,-0.331481481,1,0,0,0.6997,button_left,0.6997,1,0,4,4,6,1,stimuli/black_4.jpg,,a,,,,,,,,
,,,,,,,,,,,,,adasdf,1,001,male,2022-07-10_09h50.07.511,openIAT,2020.1.0rc3,Win32,60,,0,0.493518519,-0.237037037,1,0,0,27.0672,button_right,27.0672,1,0,5,5,11,1,stimuli/blank.png,Bad,l,,,,,,,,
,,,,,,,,,,,,,adasdf,1,001,male,2022-07-10_09h50.07.511,openIAT,2020.1.0rc3,Win32,60,,0,0.427777778,-0.247222222,1,0,0,2.2347,button_right,2.2347,1,0,6,6,9,1,stimuli/white_5.jpg,,l,,,,,,,,
,,,,,,,,,,,,,adasdf,1,001,male,2022-07-10_09h50.07.511,openIAT,2020.1.0rc3,Win32,60,,0,0.308333333,-0.219444444,1,0,0,6.9218,button_right,6.9218,0,0,7,7,14,1,stimuli/blank.png,Pleasure,a,,,,,,,,
,,,,,,,,,,,,,adasdf,1,001,male,2022-07-10_09h50.07.511,openIAT,2020.1.0rc3,Win32,60,,0,0.325,-0.243518519,1,0,0,1.8502,button_right,1.8502,0,0,8,8,18,1,stimuli/blank.png,Joy,a,,,,,,,,
,,,,,,,,,,,,,adasdf,1,001,male,2022-07-10_09h50.07.511,openIAT,2020.1.0rc3,Win32,60,,0,0.32962963,-0.251851852,1,0,0,1.2004,button_right,1.2004,1,0,9,9,19,1,stimuli/blank.png,Nasty,l,,,,,,,,
,,,,,,,,,,,,,adasdf,1,001,male,2022-07-10_09h50.07.511,openIAT,2020.1.0rc3,Win32,60,,0,0.293518519,-0.287962963,1,0,0,3.1695,button_right,3.1695,1,0,10,10,7,1,stimuli/white_4.jpg,,l,,,,,,,,
,,,,,,,,,,,,,adasdf,1,001,male,2022-07-10_09h50.07.511,openIAT,2020.1.0rc3,Win32,60,,0,0.251851852,-0.264814815,1,0,0,2.1522,button_right,2.1522,1,0,11,11,17,1,stimuli/blank.png,Evil,l,,,,,,,,
,,,,,,,,,,,,,adasdf,1,001,male,2022-07-10_09h50.07.511,openIAT,2020.1.0rc3,Win32,60,,0,-0.294444444,-0.336111111,1,0,0,1.2341,button_left,1.2341,1,0,12,12,4,1,stimuli/black_3.jpg,,a,,,,,,,,
,,,,,,,,,,,,,adasdf,1,001,male,2022-07-10_09h50.07.511,openIAT,2020.1.0rc3,Win32,60,,0,-0.293518519,-0.289814815,1,0,0,2.1014,button_left,2.1014,0,0,13,13,13,1,stimuli/blank.png,Hurt,l,,,,,,,,
,,,,,,,,,,,,,adasdf,1,001,male,2022-07-10_09h50.07.511,openIAT,2020.1.0rc3,Win32,60,,0,0.264814815,-0.25,1,0,0,2.0009,button_right,2.0009,1,0,14,14,5,1,stimuli/white_3.jpg,,l,,,,,,,,
,,,,,,,,,,,,,adasdf,1,001,male,2022-07-10_09h50.07.511,openIAT,2020.1.0rc3,Win32,60,,0,-0.417592593,-0.314814815,1,0,0,1.1996,button_left,1.1996,1,0,15,15,2,1,stimuli/black_2.jpg,,a,,,,,,,,
,,,,,,,,,,,,,adasdf,1,001,male,2022-07-10_09h50.07.511,openIAT,2020.1.0rc3,Win32,60,,0,0.238888889,-0.250925926,1,0,0,1.2494,button_right,1.2494,1,0,16,16,3,1,stimuli/white_2.jpg,,l,,,,,,,,
,,,,,,,,,,,,,adasdf,1,001,male,2022-07-10_09h50.07.511,openIAT,2020.1.0rc3,Win32,60,,0,0.286111111,-0.276851852,1,0,0,1.6172,button_right,1.6172,0,0,17,17,12,1,stimuli/blank.png,Happy,a,,,,,,,,
,,,,,,,,,,,,,adasdf,1,001,male,2022-07-10_09h50.07.511,openIAT,2020.1.0rc3,Win32,60,,0,-0.232407407,-0.285185185,1,0,0,2.3524,button_left,2.3524,0,0,18,18,15,1,stimuli/blank.png,Agony,l,,,,,,,,
,,,,,,,,,,,,,adasdf,1,001,male,2022-07-10_09h50.07.511,openIAT,2020.1.0rc3,Win32,60,,0,-0.332407407,-0.285185185,1,0,0,1.0182,button_left,1.0182,1,0,19,19,0,1,stimuli/black_1.jpg,,a,,,,,,,,
