instr_done_touch.x,instr_done_touch.y,instr_done_touch.leftButton,instr_done_touch.midButton,instr_done_touch.rightButton,instr_done_touch.clicked_name,instruct_pages.thisRepN,instruct_pages.thisTrialN,instruct_pages.thisN,instruct_pages.thisIndex,instruct_pages.ran,pageN,instruct_text,participant,order,session,gender,date,expName,psychopyVersion,OS,frameRate,key_resp.keys,key_resp.corr,key_resp.rt,touch_resp.x,touch_resp.y,touch_resp.leftButton,touch_resp.midButton,touch_resp.rightButton,touch_resp.time,touch_resp.clicked_name,rt,corr,trials.thisRepN,trials.thisTrialN,trials.thisN,trials.thisIndex,trials.ran,stimImage,stimWord,CorrAns,blocks.thisRepN,blocks.thisTrialN,blocks.thisN,blocks.thisIndex,blocks.ran,conds_file,label_left,label_right
0.055,-0.375833359,1,0,0,instr_done_button,0,0,0,0,1,1,"You will be presented with words or images to classify into categories using either the 'A' or 'L' key. 
 
Try to go as fast as possible while making as few mistakes as possible. 
",AI,1,001,female,2023-09-02_15h33.19.335,openIAT,2020.1.0rc3,Win32,60,,,,,,,,,,,,,,,,,,,,,,,,,,,,
0.054166718,-0.4075,1,0,0,instr_done_button,0,1,1,1,1,2,"Keep in mind: 
 
1) Labels at the top of the screen indicate which catogory goes with which key. 
 
2) Each word or image has a correct catogory classification 
 
3) Keep your index fingers on the A and L keys to enable a rapid response. 
 
4) The test gives no results if you go slow- please try to go as fast as possible 
",AI,1,001,female,2023-09-02_15h33.19.335,openIAT,2020.1.0rc3,Win32,60,,,,,,,,,,,,,,,,,,,,,,,,,,,,
,,,,,,,,,,,,,AI,1,001,female,2023-09-02_15h33.19.335,openIAT,2020.1.0rc3,Win32,60,a,1,1.7697,,,,,,,,1.7697,1,0,0,0,0,1,stimuli/blank.png,Good,a,,,,,,,,
,,,,,,,,,,,,,AI,1,001,female,2023-09-02_15h33.19.335,openIAT,2020.1.0rc3,Win32,60,l,1,1.4522,,,,,,,,1.4522,1,0,1,1,9,1,stimuli/blank.png,Nasty,l,,,,,,,,
,,,,,,,,,,,,,AI,1,001,female,2023-09-02_15h33.19.335,openIAT,2020.1.0rc3,Win32,60,a,1,0.8973,,,,,,,,0.8973,1,0,2,2,8,1,stimuli/blank.png,Joy,a,,,,,,,,
,,,,,,,,,,,,,AI,1,001,female,2023-09-02_15h33.19.335,openIAT,2020.1.0rc3,Win32,60,l,1,0.8136,,,,,,,,0.8136,1,0,3,3,3,1,stimuli/blank.png,Hurt,l,,,,,,,,
,,,,,,,,,,,,,AI,1,001,female,2023-09-02_15h33.19.335,openIAT,2020.1.0rc3,Win32,60,a,1,0.8547,,,,,,,,0.8547,1,0,4,4,4,1,stimuli/blank.png,Pleasure,a,,,,,,,,
,,,,,,,,,,,,,AI,1,001,female,2023-09-02_15h33.19.335,openIAT,2020.1.0rc3,Win32,60,l,1,0.6623,,,,,,,,0.6623,1,0,5,5,5,1,stimuli/blank.png,Agony,l,,,,,,,,
,,,,,,,,,,,,,AI,1,001,female,2023-09-02_15h33.19.335,openIAT,2020.1.0rc3,Win32,60,l,1,0.58,,,,,,,,0.58,1,0,6,6,1,1,stimuli/blank.png,Bad,l,,,,,,,,
,,,,,,,,,,,,,AI,1,001,female,2023-09-02_15h33.19.335,openIAT,2020.1.0rc3,Win32,60,a,1,0.604,,,,,,,,0.604,1,0,7,7,6,1,stimuli/blank.png,Love,a,,,,,,,,
,,,,,,,,,,,,,AI,1,001,female,2023-09-02_15h33.19.335,openIAT,2020.1.0rc3,Win32,60,a,1,0.6536,,,,,,,,0.6536,1,0,8,8,2,1,stimuli/blank.png,Happy,a,,,,,,,,
,,,,,,,,,,,,,AI,1,001,female,2023-09-02_15h33.19.335,openIAT,2020.1.0rc3,Win32,60,l,1,0.6706,,,,,,,,0.6706,1,0,9,9,7,1,stimuli/blank.png,Evil,l,,,,,,,,
,,,,,,,,,,,,,AI,1,001,female,2023-09-02_15h33.19.335,openIAT,2020.1.0rc3,Win32,60,,,,,,,,,,,,,,,,,,,,,0,0,0,0,1,pos_neg_train.xlsx,"A = 
Positive","L = 
Negative"
,,,,,,,,,,,,,AI,1,001,female,2023-09-02_15h33.19.335,openIAT,2020.1.0rc3,Win32,60,l,1,0.9379,,,,,,,,0.9379,1,0,0,0,4,1,stimuli/black_3.jpg,NaN,l,,,,,,,,
,,,,,,,,,,,,,AI,1,001,female,2023-09-02_15h33.19.335,openIAT,2020.1.0rc3,Win32,60,l,0,0.6529,,,,,,,,0.6529,0,0,1,1,7,1,stimuli/white_4.jpg,NaN,a,,,,,,,,
,,,,,,,,,,,,,AI,1,001,female,2023-09-02_15h33.19.335,openIAT,2020.1.0rc3,Win32,60,a,1,1.4988,,,,,,,,1.4988,1,0,2,2,5,1,stimuli/white_3.jpg,NaN,a,,,,,,,,
,,,,,,,,,,,,,AI,1,001,female,2023-09-02_15h33.19.335,openIAT,2020.1.0rc3,Win32,60,l,1,0.6707,,,,,,,,0.6707,1,0,3,3,2,1,stimuli/black_2.jpg,NaN,l,,,,,,,,
,,,,,,,,,,,,,AI,1,001,female,2023-09-02_15h33.19.335,openIAT,2020.1.0rc3,Win32,60,a,1,0.9949,,,,,,,,0.9949,1,0,4,4,3,1,stimuli/white_2.jpg,NaN,a,,,,,,,,
,,,,,,,,,,,,,AI,1,001,female,2023-09-02_15h33.19.335,openIAT,2020.1.0rc3,Win32,60,l,1,0.7552,,,,,,,,0.7552,1,0,5,5,6,1,stimuli/black_4.jpg,NaN,l,,,,,,,,
,,,,,,,,,,,,,AI,1,001,female,2023-09-02_15h33.19.335,openIAT,2020.1.0rc3,Win32,60,l,1,0.6137,,,,,,,,0.6137,1,0,6,6,8,1,stimuli/black_5.jpg,NaN,l,,,,,,,,
,,,,,,,,,,,,,AI,1,001,female,2023-09-02_15h33.19.335,openIAT,2020.1.0rc3,Win32,60,a,1,0.6022,,,,,,,,0.6022,1,0,7,7,1,1,stimuli/white_1.jpg,NaN,a,,,,,,,,
,,,,,,,,,,,,,AI,1,001,female,2023-09-02_15h33.19.335,openIAT,2020.1.0rc3,Win32,60,l,1,0.6519,,,,,,,,0.6519,1,0,8,8,0,1,stimuli/black_1.jpg,NaN,l,,,,,,,,
,,,,,,,,,,,,,AI,1,001,female,2023-09-02_15h33.19.335,openIAT,2020.1.0rc3,Win32,60,a,1,0.6576,,,,,,,,0.6576,1,0,9,9,9,1,stimuli/white_5.jpg,NaN,a,,,,,,,,
,,,,,,,,,,,,,AI,1,001,female,2023-09-02_15h33.19.335,openIAT,2020.1.0rc3,Win32,60,,,,,,,,,,,,,,,,,,,,,0,1,1,1,1,cong_train.xlsx,"A = 
White","L = 
Black"
,,,,,,,,,,,,,AI,1,001,female,2023-09-02_15h33.19.335,openIAT,2020.1.0rc3,Win32,60,l,1,0.5506,,,,,,,,0.5506,1,0,0,0,4,1,stimuli/black_3.jpg,NaN,l,,,,,,,,
,,,,,,,,,,,,,AI,1,001,female,2023-09-02_15h33.19.335,openIAT,2020.1.0rc3,Win32,60,a,1,0.5615,,,,,,,,0.5615,1,0,1,1,1,1,stimuli/white_1.jpg,NaN,a,,,,,,,,
,,,,,,,,,,,,,AI,1,001,female,2023-09-02_15h33.19.335,openIAT,2020.1.0rc3,Win32,60,l,1,0.5672,,,,,,,,0.5672,1,0,2,2,6,1,stimuli/black_4.jpg,NaN,l,,,,,,,,
,,,,,,,,,,,,,AI,1,001,female,2023-09-02_15h33.19.335,openIAT,2020.1.0rc3,Win32,60,l,1,0.6432,,,,,,,,0.6432,1,0,3,3,11,1,stimuli/blank.png,Bad,l,,,,,,,,
,,,,,,,,,,,,,AI,1,001,female,2023-09-02_15h33.19.335,openIAT,2020.1.0rc3,Win32,60,a,1,0.6232,,,,,,,,0.6232,1,0,4,4,10,1,stimuli/blank.png,Good,a,,,,,,,,
,,,,,,,,,,,,,AI,1,001,female,2023-09-02_15h33.19.335,openIAT,2020.1.0rc3,Win32,60,l,1,0.6272,,,,,,,,0.6272,1,0,5,5,19,1,stimuli/blank.png,Nasty,l,,,,,,,,
,,,,,,,,,,,,,AI,1,001,female,2023-09-02_15h33.19.335,openIAT,2020.1.0rc3,Win32,60,a,1,0.7298,,,,,,,,0.7298,1,0,6,6,9,1,stimuli/white_5.jpg,NaN,a,,,,,,,,
,,,,,,,,,,,,,AI,1,001,female,2023-09-02_15h33.19.335,openIAT,2020.1.0rc3,Win32,60,l,1,0.6894,,,,,,,,0.6894,1,0,7,7,17,1,stimuli/blank.png,Evil,l,,,,,,,,
,,,,,,,,,,,,,AI,1,001,female,2023-09-02_15h33.19.335,openIAT,2020.1.0rc3,Win32,60,a,1,0.6328,,,,,,,,0.6328,1,0,8,8,3,1,stimuli/white_2.jpg,NaN,a,,,,,,,,
,,,,,,,,,,,,,AI,1,001,female,2023-09-02_15h33.19.335,openIAT,2020.1.0rc3,Win32,60,a,1,0.5751,,,,,,,,0.5751,1,0,9,9,12,1,stimuli/blank.png,Happy,a,,,,,,,,
,,,,,,,,,,,,,AI,1,001,female,2023-09-02_15h33.19.335,openIAT,2020.1.0rc3,Win32,60,a,1,0.7084,,,,,,,,0.7084,1,0,10,10,14,1,stimuli/blank.png,Pleasure,a,,,,,,,,
,,,,,,,,,,,,,AI,1,001,female,2023-09-02_15h33.19.335,openIAT,2020.1.0rc3,Win32,60,a,1,0.6613,,,,,,,,0.6613,1,0,11,11,18,1,stimuli/blank.png,Joy,a,,,,,,,,
,,,,,,,,,,,,,AI,1,001,female,2023-09-02_15h33.19.335,openIAT,2020.1.0rc3,Win32,60,a,1,0.5606,,,,,,,,0.5606,1,0,12,12,16,1,stimuli/blank.png,Love,a,,,,,,,,
,,,,,,,,,,,,,AI,1,001,female,2023-09-02_15h33.19.335,openIAT,2020.1.0rc3,Win32,60,l,1,0.537,,,,,,,,0.537,1,0,13,13,13,1,stimuli/blank.png,Hurt,l,,,,,,,,
,,,,,,,,,,,,,AI,1,001,female,2023-09-02_15h33.19.335,openIAT,2020.1.0rc3,Win32,60,a,1,0.6048,,,,,,,,0.6048,1,0,14,14,5,1,stimuli/white_3.jpg,NaN,a,,,,,,,,
,,,,,,,,,,,,,AI,1,001,female,2023-09-02_15h33.19.335,openIAT,2020.1.0rc3,Win32,60,a,1,0.7154,,,,,,,,0.7154,1,0,15,15,7,1,stimuli/white_4.jpg,NaN,a,,,,,,,,
,,,,,,,,,,,,,AI,1,001,female,2023-09-02_15h33.19.335,openIAT,2020.1.0rc3,Win32,60,l,1,0.6098,,,,,,,,0.6098,1,0,16,16,2,1,stimuli/black_2.jpg,NaN,l,,,,,,,,
,,,,,,,,,,,,,AI,1,001,female,2023-09-02_15h33.19.335,openIAT,2020.1.0rc3,Win32,60,l,1,0.5967,,,,,,,,0.5967,1,0,17,17,8,1,stimuli/black_5.jpg,NaN,l,,,,,,,,
,,,,,,,,,,,,,AI,1,001,female,2023-09-02_15h33.19.335,openIAT,2020.1.0rc3,Win32,60,l,1,0.7774,,,,,,,,0.7774,1,0,18,18,15,1,stimuli/blank.png,Agony,l,,,,,,,,
,,,,,,,,,,,,,AI,1,001,female,2023-09-02_15h33.19.335,openIAT,2020.1.0rc3,Win32,60,l,1,0.5591,,,,,,,,0.5591,1,0,19,19,0,1,stimuli/black_1.jpg,NaN,l,,,,,,,,
,,,,,,,,,,,,,AI,1,001,female,2023-09-02_15h33.19.335,openIAT,2020.1.0rc3,Win32,60,,,,,,,,,,,,,,,,,,,,,0,2,2,2,1,cong_test.xlsx,"A = 
White or 
Positive","L = 
Black or 
Negative"
,,,,,,,,,,,,,AI,1,001,female,2023-09-02_15h33.19.335,openIAT,2020.1.0rc3,Win32,60,a,1,0.6751,,,,,,,,0.6751,1,0,0,0,2,1,stimuli/black_2.jpg,,a,,,,,,,,
,,,,,,,,,,,,,AI,1,001,female,2023-09-02_15h33.19.335,openIAT,2020.1.0rc3,Win32,60,l,1,0.3779,,,,,,,,0.3779,1,0,1,1,3,1,stimuli/white_2.jpg,,l,,,,,,,,
,,,,,,,,,,,,,AI,1,001,female,2023-09-02_15h33.19.335,openIAT,2020.1.0rc3,Win32,60,a,1,0.4301,,,,,,,,0.4301,1,0,2,2,6,1,stimuli/black_4.jpg,,a,,,,,,,,
,,,,,,,,,,,,,AI,1,001,female,2023-09-02_15h33.19.335,openIAT,2020.1.0rc3,Win32,60,l,1,0.6425,,,,,,,,0.6425,1,0,3,3,5,1,stimuli/white_3.jpg,,l,,,,,,,,
,,,,,,,,,,,,,AI,1,001,female,2023-09-02_15h33.19.335,openIAT,2020.1.0rc3,Win32,60,a,1,0.7257,,,,,,,,0.7257,1,0,4,4,4,1,stimuli/black_3.jpg,,a,,,,,,,,
,,,,,,,,,,,,,AI,1,001,female,2023-09-02_15h33.19.335,openIAT,2020.1.0rc3,Win32,60,a,1,0.6288,,,,,,,,0.6288,1,0,5,5,8,1,stimuli/black_5.jpg,,a,,,,,,,,
,,,,,,,,,,,,,AI,1,001,female,2023-09-02_15h33.19.335,openIAT,2020.1.0rc3,Win32,60,a,0,0.413,,,,,,,,0.413,0,0,6,6,7,1,stimuli/white_4.jpg,,l,,,,,,,,
,,,,,,,,,,,,,AI,1,001,female,2023-09-02_15h33.19.335,openIAT,2020.1.0rc3,Win32,60,l,1,0.5829,,,,,,,,0.5829,1,0,7,7,1,1,stimuli/white_1.jpg,,l,,,,,,,,
,,,,,,,,,,,,,AI,1,001,female,2023-09-02_15h33.19.335,openIAT,2020.1.0rc3,Win32,60,a,1,0.6129,,,,,,,,0.6129,1,0,8,8,0,1,stimuli/black_1.jpg,,a,,,,,,,,
,,,,,,,,,,,,,AI,1,001,female,2023-09-02_15h33.19.335,openIAT,2020.1.0rc3,Win32,60,l,1,0.6302,,,,,,,,0.6302,1,0,9,9,9,1,stimuli/white_5.jpg,,l,,,,,,,,
,,,,,,,,,,,,,AI,1,001,female,2023-09-02_15h33.19.335,openIAT,2020.1.0rc3,Win32,60,,,,,,,,,,,,,,,,,,,,,0,3,3,3,1,incong_train.xlsx,"A = 
Black","L = 
White"
,,,,,,,,,,,,,AI,1,001,female,2023-09-02_15h33.19.335,openIAT,2020.1.0rc3,Win32,60,l,1,1.6197,,,,,,,,1.6197,1,0,0,0,19,1,stimuli/blank.png,Nasty,l,,,,,,,,
,,,,,,,,,,,,,AI,1,001,female,2023-09-02_15h33.19.335,openIAT,2020.1.0rc3,Win32,60,a,1,0.7695,,,,,,,,0.7695,1,0,1,1,8,1,stimuli/black_5.jpg,,a,,,,,,,,
,,,,,,,,,,,,,AI,1,001,female,2023-09-02_15h33.19.335,openIAT,2020.1.0rc3,Win32,60,a,1,1.6241,,,,,,,,1.6241,1,0,2,2,2,1,stimuli/black_2.jpg,,a,,,,,,,,
,,,,,,,,,,,,,AI,1,001,female,2023-09-02_15h33.19.335,openIAT,2020.1.0rc3,Win32,60,a,1,1.2688,,,,,,,,1.2688,1,0,3,3,14,1,stimuli/blank.png,Pleasure,a,,,,,,,,
,,,,,,,,,,,,,AI,1,001,female,2023-09-02_15h33.19.335,openIAT,2020.1.0rc3,Win32,60,a,1,0.427,,,,,,,,0.427,1,0,4,4,0,1,stimuli/black_1.jpg,,a,,,,,,,,
,,,,,,,,,,,,,AI,1,001,female,2023-09-02_15h33.19.335,openIAT,2020.1.0rc3,Win32,60,l,1,0.7493,,,,,,,,0.7493,1,0,5,5,3,1,stimuli/white_2.jpg,,l,,,,,,,,
,,,,,,,,,,,,,AI,1,001,female,2023-09-02_15h33.19.335,openIAT,2020.1.0rc3,Win32,60,a,1,0.6296,,,,,,,,0.6296,1,0,6,6,10,1,stimuli/blank.png,Good,a,,,,,,,,
,,,,,,,,,,,,,AI,1,001,female,2023-09-02_15h33.19.335,openIAT,2020.1.0rc3,Win32,60,l,1,0.5748,,,,,,,,0.5748,1,0,7,7,11,1,stimuli/blank.png,Bad,l,,,,,,,,
,,,,,,,,,,,,,AI,1,001,female,2023-09-02_15h33.19.335,openIAT,2020.1.0rc3,Win32,60,l,1,0.635,,,,,,,,0.635,1,0,8,8,13,1,stimuli/blank.png,Hurt,l,,,,,,,,
,,,,,,,,,,,,,AI,1,001,female,2023-09-02_15h33.19.335,openIAT,2020.1.0rc3,Win32,60,l,1,0.7153,,,,,,,,0.7153,1,0,9,9,1,1,stimuli/white_1.jpg,,l,,,,,,,,
,,,,,,,,,,,,,AI,1,001,female,2023-09-02_15h33.19.335,openIAT,2020.1.0rc3,Win32,60,l,1,0.5836,,,,,,,,0.5836,1,0,10,10,9,1,stimuli/white_5.jpg,,l,,,,,,,,
,,,,,,,,,,,,,AI,1,001,female,2023-09-02_15h33.19.335,openIAT,2020.1.0rc3,Win32,60,a,1,0.6487,,,,,,,,0.6487,1,0,11,11,16,1,stimuli/blank.png,Love,a,,,,,,,,
,,,,,,,,,,,,,AI,1,001,female,2023-09-02_15h33.19.335,openIAT,2020.1.0rc3,Win32,60,a,1,0.8962,,,,,,,,0.8962,1,0,12,12,18,1,stimuli/blank.png,Joy,a,,,,,,,,
,,,,,,,,,,,,,AI,1,001,female,2023-09-02_15h33.19.335,openIAT,2020.1.0rc3,Win32,60,a,0,0.6596,,,,,,,,0.6596,0,0,13,13,7,1,stimuli/white_4.jpg,,l,,,,,,,,
,,,,,,,,,,,,,AI,1,001,female,2023-09-02_15h33.19.335,openIAT,2020.1.0rc3,Win32,60,l,1,0.6618,,,,,,,,0.6618,1,0,14,14,17,1,stimuli/blank.png,Evil,l,,,,,,,,
,,,,,,,,,,,,,AI,1,001,female,2023-09-02_15h33.19.335,openIAT,2020.1.0rc3,Win32,60,a,1,0.6828,,,,,,,,0.6828,1,0,15,15,12,1,stimuli/blank.png,Happy,a,,,,,,,,
,,,,,,,,,,,,,AI,1,001,female,2023-09-02_15h33.19.335,openIAT,2020.1.0rc3,Win32,60,a,1,0.8866,,,,,,,,0.8866,1,0,16,16,6,1,stimuli/black_4.jpg,,a,,,,,,,,
,,,,,,,,,,,,,AI,1,001,female,2023-09-02_15h33.19.335,openIAT,2020.1.0rc3,Win32,60,a,0,1.1319,,,,,,,,1.1319,0,0,17,17,15,1,stimuli/blank.png,Agony,l,,,,,,,,
,,,,,,,,,,,,,AI,1,001,female,2023-09-02_15h33.19.335,openIAT,2020.1.0rc3,Win32,60,l,1,0.7318,,,,,,,,0.7318,1,0,18,18,5,1,stimuli/white_3.jpg,,l,,,,,,,,
,,,,,,,,,,,,,AI,1,001,female,2023-09-02_15h33.19.335,openIAT,2020.1.0rc3,Win32,60,a,1,0.7993,,,,,,,,0.7993,1,0,19,19,4,1,stimuli/black_3.jpg,,a,,,,,,,,
