instr_done_touch.x,instr_done_touch.y,instr_done_touch.leftButton,instr_done_touch.midButton,instr_done_touch.rightButton,instr_done_touch.clicked_name,instruct_pages.thisRepN,instruct_pages.thisTrialN,instruct_pages.thisN,instruct_pages.thisIndex,instruct_pages.ran,pageN,instruct_text,participant,order,session,gender,date,expName,psychopyVersion,OS,frameRate,key_resp.keys,key_resp.corr,key_resp.rt,touch_resp.x,touch_resp.y,touch_resp.leftButton,touch_resp.midButton,touch_resp.rightButton,touch_resp.time,touch_resp.clicked_name,rt,corr,trials.thisRepN,trials.thisTrialN,trials.thisN,trials.thisIndex,trials.ran,stimImage,stimWord,CorrAns,blocks.thisRepN,blocks.thisTrialN,blocks.thisN,blocks.thisIndex,blocks.ran,conds_file,label_left,label_right
-0.007903646,-0.377521701,1,0,0,instr_done_button,0,0,0,0,1,1,"You will be presented with words or images to classify into categories using either the 'A' or 'L' key. 
 
Try to go as fast as possible while making as few mistakes as possible. 
",AK,1,001,female,2020-07-20_16h23.12.350,openIAT,2020.1.0rc3,MacIntel,60,,,,,,,,,,,,,,,,,,,,,,,,,,,,
-0.007903646,-0.377521701,1,0,0,instr_done_button,0,1,1,1,1,2,"Keep in mind: 
 
1) Labels at the top of the screen indicate which catogory goes with which key. 
 
2) Each word or image has a correct catogory classification 
 
3) Keep your index fingers on the A and L keys to enable a rapid response. 
 
4) The test gives no results if you go slow- please try to go as fast as possible 
",AK,1,001,female,2020-07-20_16h23.12.350,openIAT,2020.1.0rc3,MacIntel,60,,,,,,,,,,,,,,,,,,,,,,,,,,,,
,,,,,,,,,,,,,AK,1,001,female,2020-07-20_16h23.12.350,openIAT,2020.1.0rc3,MacIntel,60,l,1,3.12008,,,,,,,,3.12008,1,0,0,0,5,1,stimuli/blank.png,Agony,l,,,,,,,,
,,,,,,,,,,,,,AK,1,001,female,2020-07-20_16h23.12.350,openIAT,2020.1.0rc3,MacIntel,60,l,1,1.70674,,,,,,,,1.70674,1,0,1,1,9,1,stimuli/blank.png,Nasty,l,,,,,,,,
,,,,,,,,,,,,,AK,1,001,female,2020-07-20_16h23.12.350,openIAT,2020.1.0rc3,MacIntel,60,a,1,1.36646,,,,,,,,1.36646,1,0,2,2,2,1,stimuli/blank.png,Happy,a,,,,,,,,
,,,,,,,,,,,,,AK,1,001,female,2020-07-20_16h23.12.350,openIAT,2020.1.0rc3,MacIntel,60,l,1,1.283355,,,,,,,,1.283355,1,0,3,3,7,1,stimuli/blank.png,Evil,l,,,,,,,,
,,,,,,,,,,,,,AK,1,001,female,2020-07-20_16h23.12.350,openIAT,2020.1.0rc3,MacIntel,60,a,1,1.055695,,,,,,,,1.055695,1,0,4,4,0,1,stimuli/blank.png,Good,a,,,,,,,,
,,,,,,,,,,,,,AK,1,001,female,2020-07-20_16h23.12.350,openIAT,2020.1.0rc3,MacIntel,60,a,1,1.38553,,,,,,,,1.38553,1,0,5,5,6,1,stimuli/blank.png,Love,a,,,,,,,,
,,,,,,,,,,,,,AK,1,001,female,2020-07-20_16h23.12.350,openIAT,2020.1.0rc3,MacIntel,60,a,1,1.55076,,,,,,,,1.55076,1,0,6,6,4,1,stimuli/blank.png,Pleasure,a,,,,,,,,
,,,,,,,,,,,,,AK,1,001,female,2020-07-20_16h23.12.350,openIAT,2020.1.0rc3,MacIntel,60,a,1,1.44139,,,,,,,,1.44139,1,0,7,7,8,1,stimuli/blank.png,Joy,a,,,,,,,,
,,,,,,,,,,,,,AK,1,001,female,2020-07-20_16h23.12.350,openIAT,2020.1.0rc3,MacIntel,60,l,1,1.305325,,,,,,,,1.305325,1,0,8,8,3,1,stimuli/blank.png,Hurt,l,,,,,,,,
,,,,,,,,,,,,,AK,1,001,female,2020-07-20_16h23.12.350,openIAT,2020.1.0rc3,MacIntel,60,l,1,1.155215,,,,,,,,1.155215,1,0,9,9,1,1,stimuli/blank.png,Bad,l,,,,,,,,
,,,,,,,,,,,,,AK,1,001,female,2020-07-20_16h23.12.350,openIAT,2020.1.0rc3,MacIntel,60,,,,,,,,,,,,,,,,,,,,,0,0,0,0,1,pos_neg_train.xlsx,"A = 
Positive","L = 
Negative"
,,,,,,,,,,,,,AK,1,001,female,2020-07-20_16h23.12.350,openIAT,2020.1.0rc3,MacIntel,60,l,1,1.519185,,,,,,,,1.519185,1,0,0,0,6,1,stimuli/black_4.jpg,NaN,l,,,,,,,,
,,,,,,,,,,,,,AK,1,001,female,2020-07-20_16h23.12.350,openIAT,2020.1.0rc3,MacIntel,60,a,1,0.93383,,,,,,,,0.93383,1,0,1,1,3,1,stimuli/white_2.jpg,NaN,a,,,,,,,,
,,,,,,,,,,,,,AK,1,001,female,2020-07-20_16h23.12.350,openIAT,2020.1.0rc3,MacIntel,60,l,1,0.78656,,,,,,,,0.78656,1,0,2,2,4,1,stimuli/black_3.jpg,NaN,l,,,,,,,,
,,,,,,,,,,,,,AK,1,001,female,2020-07-20_16h23.12.350,openIAT,2020.1.0rc3,MacIntel,60,l,1,1.34826,,,,,,,,1.34826,1,0,3,3,8,1,stimuli/black_5.jpg,NaN,l,,,,,,,,
,,,,,,,,,,,,,AK,1,001,female,2020-07-20_16h23.12.350,openIAT,2020.1.0rc3,MacIntel,60,l,1,2.572535,,,,,,,,2.572535,1,0,4,4,2,1,stimuli/black_2.jpg,NaN,l,,,,,,,,
,,,,,,,,,,,,,AK,1,001,female,2020-07-20_16h23.12.350,openIAT,2020.1.0rc3,MacIntel,60,l,1,0.416875,,,,,,,,0.416875,1,0,5,5,0,1,stimuli/black_1.jpg,NaN,l,,,,,,,,
,,,,,,,,,,,,,AK,1,001,female,2020-07-20_16h23.12.350,openIAT,2020.1.0rc3,MacIntel,60,a,1,1.089035,,,,,,,,1.089035,1,0,6,6,5,1,stimuli/white_3.jpg,NaN,a,,,,,,,,
,,,,,,,,,,,,,AK,1,001,female,2020-07-20_16h23.12.350,openIAT,2020.1.0rc3,MacIntel,60,l,0,1.28543,,,,,,,,1.28543,0,0,7,7,9,1,stimuli/white_5.jpg,NaN,a,,,,,,,,
,,,,,,,,,,,,,AK,1,001,female,2020-07-20_16h23.12.350,openIAT,2020.1.0rc3,MacIntel,60,a,1,1.717695,,,,,,,,1.717695,1,0,8,8,1,1,stimuli/white_1.jpg,NaN,a,,,,,,,,
,,,,,,,,,,,,,AK,1,001,female,2020-07-20_16h23.12.350,openIAT,2020.1.0rc3,MacIntel,60,a,1,0.92555,,,,,,,,0.92555,1,0,9,9,7,1,stimuli/white_4.jpg,NaN,a,,,,,,,,
,,,,,,,,,,,,,AK,1,001,female,2020-07-20_16h23.12.350,openIAT,2020.1.0rc3,MacIntel,60,,,,,,,,,,,,,,,,,,,,,0,1,1,1,1,cong_train.xlsx,"A = 
White","L = 
Black"
,,,,,,,,,,,,,AK,1,001,female,2020-07-20_16h23.12.350,openIAT,2020.1.0rc3,MacIntel,60,l,1,2.024035,,,,,,,,2.024035,1,0,0,0,4,1,stimuli/black_3.jpg,NaN,l,,,,,,,,
,,,,,,,,,,,,,AK,1,001,female,2020-07-20_16h23.12.350,openIAT,2020.1.0rc3,MacIntel,60,l,1,2.10997,,,,,,,,2.10997,1,0,1,1,2,1,stimuli/black_2.jpg,NaN,l,,,,,,,,
,,,,,,,,,,,,,AK,1,001,female,2020-07-20_16h23.12.350,openIAT,2020.1.0rc3,MacIntel,60,a,1,0.936965,,,,,,,,0.936965,1,0,2,2,9,1,stimuli/white_5.jpg,NaN,a,,,,,,,,
,,,,,,,,,,,,,AK,1,001,female,2020-07-20_16h23.12.350,openIAT,2020.1.0rc3,MacIntel,60,a,1,2.286495,,,,,,,,2.286495,1,0,3,3,10,1,stimuli/blank.png,Good,a,,,,,,,,
,,,,,,,,,,,,,AK,1,001,female,2020-07-20_16h23.12.350,openIAT,2020.1.0rc3,MacIntel,60,l,1,1.5547,,,,,,,,1.5547,1,0,4,4,19,1,stimuli/blank.png,Nasty,l,,,,,,,,
,,,,,,,,,,,,,AK,1,001,female,2020-07-20_16h23.12.350,openIAT,2020.1.0rc3,MacIntel,60,a,1,2.967445,,,,,,,,2.967445,1,0,5,5,1,1,stimuli/white_1.jpg,NaN,a,,,,,,,,
,,,,,,,,,,,,,AK,1,001,female,2020-07-20_16h23.12.350,openIAT,2020.1.0rc3,MacIntel,60,a,1,1.952275,,,,,,,,1.952275,1,0,6,6,3,1,stimuli/white_2.jpg,NaN,a,,,,,,,,
,,,,,,,,,,,,,AK,1,001,female,2020-07-20_16h23.12.350,openIAT,2020.1.0rc3,MacIntel,60,a,1,1.29207,,,,,,,,1.29207,1,0,7,7,5,1,stimuli/white_3.jpg,NaN,a,,,,,,,,
,,,,,,,,,,,,,AK,1,001,female,2020-07-20_16h23.12.350,openIAT,2020.1.0rc3,MacIntel,60,l,1,0.846315,,,,,,,,0.846315,1,0,8,8,6,1,stimuli/black_4.jpg,NaN,l,,,,,,,,
,,,,,,,,,,,,,AK,1,001,female,2020-07-20_16h23.12.350,openIAT,2020.1.0rc3,MacIntel,60,l,1,2.81218,,,,,,,,2.81218,1,0,9,9,17,1,stimuli/blank.png,Evil,l,,,,,,,,
,,,,,,,,,,,,,AK,1,001,female,2020-07-20_16h23.12.350,openIAT,2020.1.0rc3,MacIntel,60,l,1,1.79166,,,,,,,,1.79166,1,0,10,10,13,1,stimuli/blank.png,Hurt,l,,,,,,,,
,,,,,,,,,,,,,AK,1,001,female,2020-07-20_16h23.12.350,openIAT,2020.1.0rc3,MacIntel,60,l,1,1.65218,,,,,,,,1.65218,1,0,11,11,15,1,stimuli/blank.png,Agony,l,,,,,,,,
,,,,,,,,,,,,,AK,1,001,female,2020-07-20_16h23.12.350,openIAT,2020.1.0rc3,MacIntel,60,a,1,1.549475,,,,,,,,1.549475,1,0,12,12,12,1,stimuli/blank.png,Happy,a,,,,,,,,
,,,,,,,,,,,,,AK,1,001,female,2020-07-20_16h23.12.350,openIAT,2020.1.0rc3,MacIntel,60,l,1,2.05369,,,,,,,,2.05369,1,0,13,13,8,1,stimuli/black_5.jpg,NaN,l,,,,,,,,
,,,,,,,,,,,,,AK,1,001,female,2020-07-20_16h23.12.350,openIAT,2020.1.0rc3,MacIntel,60,a,1,1.302925,,,,,,,,1.302925,1,0,14,14,7,1,stimuli/white_4.jpg,NaN,a,,,,,,,,
,,,,,,,,,,,,,AK,1,001,female,2020-07-20_16h23.12.350,openIAT,2020.1.0rc3,MacIntel,60,a,1,1.488855,,,,,,,,1.488855,1,0,15,15,14,1,stimuli/blank.png,Pleasure,a,,,,,,,,
,,,,,,,,,,,,,AK,1,001,female,2020-07-20_16h23.12.350,openIAT,2020.1.0rc3,MacIntel,60,a,1,1.468555,,,,,,,,1.468555,1,0,16,16,18,1,stimuli/blank.png,Joy,a,,,,,,,,
,,,,,,,,,,,,,AK,1,001,female,2020-07-20_16h23.12.350,openIAT,2020.1.0rc3,MacIntel,60,l,1,2.71445,,,,,,,,2.71445,1,0,17,17,0,1,stimuli/black_1.jpg,NaN,l,,,,,,,,
,,,,,,,,,,,,,AK,1,001,female,2020-07-20_16h23.12.350,openIAT,2020.1.0rc3,MacIntel,60,l,1,1.77107,,,,,,,,1.77107,1,0,18,18,11,1,stimuli/blank.png,Bad,l,,,,,,,,
,,,,,,,,,,,,,AK,1,001,female,2020-07-20_16h23.12.350,openIAT,2020.1.0rc3,MacIntel,60,a,1,1.50737,,,,,,,,1.50737,1,0,19,19,16,1,stimuli/blank.png,Love,a,,,,,,,,
,,,,,,,,,,,,,AK,1,001,female,2020-07-20_16h23.12.350,openIAT,2020.1.0rc3,MacIntel,60,,,,,,,,,,,,,,,,,,,,,0,2,2,2,1,cong_test.xlsx,"A = 
White or 
Positive","L = 
Black or 
Negative"
,,,,,,,,,,,,,AK,1,001,female,2020-07-20_16h23.12.350,openIAT,2020.1.0rc3,MacIntel,60,a,1,1.502485,,,,,,,,1.502485,1,0,0,0,6,1,stimuli/black_4.jpg,,a,,,,,,,,
,,,,,,,,,,,,,AK,1,001,female,2020-07-20_16h23.12.350,openIAT,2020.1.0rc3,MacIntel,60,l,1,0.73015,,,,,,,,0.73015,1,0,1,1,9,1,stimuli/white_5.jpg,,l,,,,,,,,
,,,,,,,,,,,,,AK,1,001,female,2020-07-20_16h23.12.350,openIAT,2020.1.0rc3,MacIntel,60,a,0,0.77,,,,,,,,0.77,0,0,2,2,1,1,stimuli/white_1.jpg,,l,,,,,,,,
,,,,,,,,,,,,,AK,1,001,female,2020-07-20_16h23.12.350,openIAT,2020.1.0rc3,MacIntel,60,l,0,0.57996,,,,,,,,0.57996,0,0,3,3,8,1,stimuli/black_5.jpg,,a,,,,,,,,
,,,,,,,,,,,,,AK,1,001,female,2020-07-20_16h23.12.350,openIAT,2020.1.0rc3,MacIntel,60,a,0,0.422465,,,,,,,,0.422465,0,0,4,4,7,1,stimuli/white_4.jpg,,l,,,,,,,,
,,,,,,,,,,,,,AK,1,001,female,2020-07-20_16h23.12.350,openIAT,2020.1.0rc3,MacIntel,60,l,1,0.71569,,,,,,,,0.71569,1,0,5,5,5,1,stimuli/white_3.jpg,,l,,,,,,,,
,,,,,,,,,,,,,AK,1,001,female,2020-07-20_16h23.12.350,openIAT,2020.1.0rc3,MacIntel,60,a,1,0.628605,,,,,,,,0.628605,1,0,6,6,4,1,stimuli/black_3.jpg,,a,,,,,,,,
,,,,,,,,,,,,,AK,1,001,female,2020-07-20_16h23.12.350,openIAT,2020.1.0rc3,MacIntel,60,l,1,0.605775,,,,,,,,0.605775,1,0,7,7,3,1,stimuli/white_2.jpg,,l,,,,,,,,
,,,,,,,,,,,,,AK,1,001,female,2020-07-20_16h23.12.350,openIAT,2020.1.0rc3,MacIntel,60,a,1,0.54734,,,,,,,,0.54734,1,0,8,8,2,1,stimuli/black_2.jpg,,a,,,,,,,,
,,,,,,,,,,,,,AK,1,001,female,2020-07-20_16h23.12.350,openIAT,2020.1.0rc3,MacIntel,60,a,1,0.584655,,,,,,,,0.584655,1,0,9,9,0,1,stimuli/black_1.jpg,,a,,,,,,,,
,,,,,,,,,,,,,AK,1,001,female,2020-07-20_16h23.12.350,openIAT,2020.1.0rc3,MacIntel,60,,,,,,,,,,,,,,,,,,,,,0,3,3,3,1,incong_train.xlsx,"A = 
Black","L = 
White"
,,,,,,,,,,,,,AK,1,001,female,2020-07-20_16h23.12.350,openIAT,2020.1.0rc3,MacIntel,60,l,0,0.718915,,,,,,,,0.718915,0,0,0,0,10,1,stimuli/blank.png,Good,a,,,,,,,,
,,,,,,,,,,,,,AK,1,001,female,2020-07-20_16h23.12.350,openIAT,2020.1.0rc3,MacIntel,60,l,1,1.46832,,,,,,,,1.46832,1,0,1,1,3,1,stimuli/white_2.jpg,,l,,,,,,,,
,,,,,,,,,,,,,AK,1,001,female,2020-07-20_16h23.12.350,openIAT,2020.1.0rc3,MacIntel,60,l,0,1.101575,,,,,,,,1.101575,0,0,2,2,18,1,stimuli/blank.png,Joy,a,,,,,,,,
,,,,,,,,,,,,,AK,1,001,female,2020-07-20_16h23.12.350,openIAT,2020.1.0rc3,MacIntel,60,a,1,1.037205,,,,,,,,1.037205,1,0,3,3,0,1,stimuli/black_1.jpg,,a,,,,,,,,
,,,,,,,,,,,,,AK,1,001,female,2020-07-20_16h23.12.350,openIAT,2020.1.0rc3,MacIntel,60,a,1,0.780585,,,,,,,,0.780585,1,0,4,4,6,1,stimuli/black_4.jpg,,a,,,,,,,,
,,,,,,,,,,,,,AK,1,001,female,2020-07-20_16h23.12.350,openIAT,2020.1.0rc3,MacIntel,60,l,0,1.174135,,,,,,,,1.174135,0,0,5,5,14,1,stimuli/blank.png,Pleasure,a,,,,,,,,
,,,,,,,,,,,,,AK,1,001,female,2020-07-20_16h23.12.350,openIAT,2020.1.0rc3,MacIntel,60,a,0,2.020845,,,,,,,,2.020845,0,0,6,6,13,1,stimuli/blank.png,Hurt,l,,,,,,,,
,,,,,,,,,,,,,AK,1,001,female,2020-07-20_16h23.12.350,openIAT,2020.1.0rc3,MacIntel,60,l,1,1.20889,,,,,,,,1.20889,1,0,7,7,17,1,stimuli/blank.png,Evil,l,,,,,,,,
,,,,,,,,,,,,,AK,1,001,female,2020-07-20_16h23.12.350,openIAT,2020.1.0rc3,MacIntel,60,a,1,0.695545,,,,,,,,0.695545,1,0,8,8,4,1,stimuli/black_3.jpg,,a,,,,,,,,
,,,,,,,,,,,,,AK,1,001,female,2020-07-20_16h23.12.350,openIAT,2020.1.0rc3,MacIntel,60,a,1,1.00126,,,,,,,,1.00126,1,0,9,9,12,1,stimuli/blank.png,Happy,a,,,,,,,,
,,,,,,,,,,,,,AK,1,001,female,2020-07-20_16h23.12.350,openIAT,2020.1.0rc3,MacIntel,60,l,1,0.891245,,,,,,,,0.891245,1,0,10,10,5,1,stimuli/white_3.jpg,,l,,,,,,,,
,,,,,,,,,,,,,AK,1,001,female,2020-07-20_16h23.12.350,openIAT,2020.1.0rc3,MacIntel,60,l,1,0.83275,,,,,,,,0.83275,1,0,11,11,11,1,stimuli/blank.png,Bad,l,,,,,,,,
,,,,,,,,,,,,,AK,1,001,female,2020-07-20_16h23.12.350,openIAT,2020.1.0rc3,MacIntel,60,l,1,0.698965,,,,,,,,0.698965,1,0,12,12,15,1,stimuli/blank.png,Agony,l,,,,,,,,
,,,,,,,,,,,,,AK,1,001,female,2020-07-20_16h23.12.350,openIAT,2020.1.0rc3,MacIntel,60,l,1,1.01638,,,,,,,,1.01638,1,0,13,13,9,1,stimuli/white_5.jpg,,l,,,,,,,,
,,,,,,,,,,,,,AK,1,001,female,2020-07-20_16h23.12.350,openIAT,2020.1.0rc3,MacIntel,60,l,1,0.71626,,,,,,,,0.71626,1,0,14,14,19,1,stimuli/blank.png,Nasty,l,,,,,,,,
,,,,,,,,,,,,,AK,1,001,female,2020-07-20_16h23.12.350,openIAT,2020.1.0rc3,MacIntel,60,a,1,1.225685,,,,,,,,1.225685,1,0,15,15,2,1,stimuli/black_2.jpg,,a,,,,,,,,
,,,,,,,,,,,,,AK,1,001,female,2020-07-20_16h23.12.350,openIAT,2020.1.0rc3,MacIntel,60,l,1,0.767665,,,,,,,,0.767665,1,0,16,16,7,1,stimuli/white_4.jpg,,l,,,,,,,,
,,,,,,,,,,,,,AK,1,001,female,2020-07-20_16h23.12.350,openIAT,2020.1.0rc3,MacIntel,60,a,1,0.614225,,,,,,,,0.614225,1,0,17,17,16,1,stimuli/blank.png,Love,a,,,,,,,,
,,,,,,,,,,,,,AK,1,001,female,2020-07-20_16h23.12.350,openIAT,2020.1.0rc3,MacIntel,60,l,0,0.76432,,,,,,,,0.76432,0,0,18,18,8,1,stimuli/black_5.jpg,,a,,,,,,,,
,,,,,,,,,,,,,AK,1,001,female,2020-07-20_16h23.12.350,openIAT,2020.1.0rc3,MacIntel,60,l,1,0.85383,,,,,,,,0.85383,1,0,19,19,1,1,stimuli/white_1.jpg,,l,,,,,,,,
