instr_done_touch.x,instr_done_touch.y,instr_done_touch.leftButton,instr_done_touch.midButton,instr_done_touch.rightButton,instr_done_touch.clicked_name,instruct_pages.thisRepN,instruct_pages.thisTrialN,instruct_pages.thisN,instruct_pages.thisIndex,instruct_pages.ran,pageN,instruct_text,participant,order,session,gender,date,expName,psychopyVersion,OS,frameRate,key_resp.keys,key_resp.corr,key_resp.rt,touch_resp.x,touch_resp.y,touch_resp.leftButton,touch_resp.midButton,touch_resp.rightButton,touch_resp.time,touch_resp.clicked_name,rt,corr,trials.thisRepN,trials.thisTrialN,trials.thisN,trials.thisIndex,trials.ran,stimImage,stimWord,CorrAns,blocks.thisRepN,blocks.thisTrialN,blocks.thisN,blocks.thisIndex,blocks.ran,conds_file,label_left,label_right
0.008333347,-0.383333347,1,0,0,instr_done_button,0,0,0,0,1,1,"You will be presented with words or images to classify into categories using either the 'A' or 'L' key. 
 
Try to go as fast as possible while making as few mistakes as possible. 
",ald,2,001,male,2023-10-21_22h55.00.712,openIAT,2020.1.0rc3,Win32,60,,,,,,,,,,,,,,,,,,,,,,,,,,,,
0.008333347,-0.383333347,1,0,0,instr_done_button,0,1,1,1,1,2,"Keep in mind: 
 
1) Labels at the top of the screen indicate which catogory goes with which key. 
 
2) Each word or image has a correct catogory classification 
 
3) Keep your index fingers on the A and L keys to enable a rapid response. 
 
4) The test gives no results if you go slow- please try to go as fast as possible 
",ald,2,001,male,2023-10-21_22h55.00.712,openIAT,2020.1.0rc3,Win32,60,,,,,,,,,,,,,,,,,,,,,,,,,,,,
,,,,,,,,,,,,,ald,2,001,male,2023-10-21_22h55.00.712,openIAT,2020.1.0rc3,Win32,60,a,1,0.8041,,,,,,,,0.8041,1,0,0,0,2,1,stimuli/blank.png,Happy,a,,,,,,,,
,,,,,,,,,,,,,ald,2,001,male,2023-10-21_22h55.00.712,openIAT,2020.1.0rc3,Win32,60,l,1,0.7435,,,,,,,,0.7435,1,0,1,1,5,1,stimuli/blank.png,Agony,l,,,,,,,,
,,,,,,,,,,,,,ald,2,001,male,2023-10-21_22h55.00.712,openIAT,2020.1.0rc3,Win32,60,a,1,0.8134,,,,,,,,0.8134,1,0,2,2,8,1,stimuli/blank.png,Joy,a,,,,,,,,
,,,,,,,,,,,,,ald,2,001,male,2023-10-21_22h55.00.712,openIAT,2020.1.0rc3,Win32,60,a,1,0.7913,,,,,,,,0.7913,1,0,3,3,6,1,stimuli/blank.png,Love,a,,,,,,,,
,,,,,,,,,,,,,ald,2,001,male,2023-10-21_22h55.00.712,openIAT,2020.1.0rc3,Win32,60,l,1,0.8054,,,,,,,,0.8054,1,0,4,4,3,1,stimuli/blank.png,Hurt,l,,,,,,,,
,,,,,,,,,,,,,ald,2,001,male,2023-10-21_22h55.00.712,openIAT,2020.1.0rc3,Win32,60,l,1,0.6632,,,,,,,,0.6632,1,0,5,5,9,1,stimuli/blank.png,Nasty,l,,,,,,,,
,,,,,,,,,,,,,ald,2,001,male,2023-10-21_22h55.00.712,openIAT,2020.1.0rc3,Win32,60,l,1,0.7596,,,,,,,,0.7596,1,0,6,6,7,1,stimuli/blank.png,Evil,l,,,,,,,,
,,,,,,,,,,,,,ald,2,001,male,2023-10-21_22h55.00.712,openIAT,2020.1.0rc3,Win32,60,l,1,0.5691,,,,,,,,0.5691,1,0,7,7,1,1,stimuli/blank.png,Bad,l,,,,,,,,
,,,,,,,,,,,,,ald,2,001,male,2023-10-21_22h55.00.712,openIAT,2020.1.0rc3,Win32,60,a,1,0.5836,,,,,,,,0.5836,1,0,8,8,0,1,stimuli/blank.png,Good,a,,,,,,,,
,,,,,,,,,,,,,ald,2,001,male,2023-10-21_22h55.00.712,openIAT,2020.1.0rc3,Win32,60,a,1,0.9719,,,,,,,,0.9719,1,0,9,9,4,1,stimuli/blank.png,Pleasure,a,,,,,,,,
,,,,,,,,,,,,,ald,2,001,male,2023-10-21_22h55.00.712,openIAT,2020.1.0rc3,Win32,60,,,,,,,,,,,,,,,,,,,,,0,0,0,0,1,pos_neg_train.xlsx,"A = 
Positive","L = 
Negative"
,,,,,,,,,,,,,ald,2,001,male,2023-10-21_22h55.00.712,openIAT,2020.1.0rc3,Win32,60,a,1,1.5833,,,,,,,,1.5833,1,0,0,0,0,1,stimuli/black_1.jpg,,a,,,,,,,,
,,,,,,,,,,,,,ald,2,001,male,2023-10-21_22h55.00.712,openIAT,2020.1.0rc3,Win32,60,a,0,0.9825,,,,,,,,0.9825,0,0,1,1,5,1,stimuli/white_3.jpg,,l,,,,,,,,
,,,,,,,,,,,,,ald,2,001,male,2023-10-21_22h55.00.712,openIAT,2020.1.0rc3,Win32,60,a,0,1.3307,,,,,,,,1.3307,0,0,2,2,3,1,stimuli/white_2.jpg,,l,,,,,,,,
,,,,,,,,,,,,,ald,2,001,male,2023-10-21_22h55.00.712,openIAT,2020.1.0rc3,Win32,60,l,1,1.693,,,,,,,,1.693,1,0,3,3,1,1,stimuli/white_1.jpg,,l,,,,,,,,
,,,,,,,,,,,,,ald,2,001,male,2023-10-21_22h55.00.712,openIAT,2020.1.0rc3,Win32,60,a,0,1.5847,,,,,,,,1.5847,0,0,4,4,7,1,stimuli/white_4.jpg,,l,,,,,,,,
,,,,,,,,,,,,,ald,2,001,male,2023-10-21_22h55.00.712,openIAT,2020.1.0rc3,Win32,60,a,1,1.72,,,,,,,,1.72,1,0,5,5,8,1,stimuli/black_5.jpg,,a,,,,,,,,
,,,,,,,,,,,,,ald,2,001,male,2023-10-21_22h55.00.712,openIAT,2020.1.0rc3,Win32,60,a,1,0.8905,,,,,,,,0.8905,1,0,6,6,4,1,stimuli/black_3.jpg,,a,,,,,,,,
,,,,,,,,,,,,,ald,2,001,male,2023-10-21_22h55.00.712,openIAT,2020.1.0rc3,Win32,60,a,1,0.9759,,,,,,,,0.9759,1,0,7,7,6,1,stimuli/black_4.jpg,,a,,,,,,,,
,,,,,,,,,,,,,ald,2,001,male,2023-10-21_22h55.00.712,openIAT,2020.1.0rc3,Win32,60,l,1,0.8578,,,,,,,,0.8578,1,0,8,8,9,1,stimuli/white_5.jpg,,l,,,,,,,,
,,,,,,,,,,,,,ald,2,001,male,2023-10-21_22h55.00.712,openIAT,2020.1.0rc3,Win32,60,a,1,0.8434,,,,,,,,0.8434,1,0,9,9,2,1,stimuli/black_2.jpg,,a,,,,,,,,
,,,,,,,,,,,,,ald,2,001,male,2023-10-21_22h55.00.712,openIAT,2020.1.0rc3,Win32,60,,,,,,,,,,,,,,,,,,,,,0,1,1,1,1,incong_train.xlsx,"A = 
Black","L = 
White"
,,,,,,,,,,,,,ald,2,001,male,2023-10-21_22h55.00.712,openIAT,2020.1.0rc3,Win32,60,a,1,1.3576,,,,,,,,1.3576,1,0,0,0,14,1,stimuli/blank.png,Pleasure,a,,,,,,,,
,,,,,,,,,,,,,ald,2,001,male,2023-10-21_22h55.00.712,openIAT,2020.1.0rc3,Win32,60,a,0,0.8801,,,,,,,,0.8801,0,0,1,1,9,1,stimuli/white_5.jpg,,l,,,,,,,,
,,,,,,,,,,,,,ald,2,001,male,2023-10-21_22h55.00.712,openIAT,2020.1.0rc3,Win32,60,a,1,1.2576,,,,,,,,1.2576,1,0,2,2,10,1,stimuli/blank.png,Good,a,,,,,,,,
,,,,,,,,,,,,,ald,2,001,male,2023-10-21_22h55.00.712,openIAT,2020.1.0rc3,Win32,60,l,0,0.7973,,,,,,,,0.7973,0,0,3,3,4,1,stimuli/black_3.jpg,,a,,,,,,,,
,,,,,,,,,,,,,ald,2,001,male,2023-10-21_22h55.00.712,openIAT,2020.1.0rc3,Win32,60,a,0,1.85,,,,,,,,1.85,0,0,4,4,13,1,stimuli/blank.png,Hurt,l,,,,,,,,
,,,,,,,,,,,,,ald,2,001,male,2023-10-21_22h55.00.712,openIAT,2020.1.0rc3,Win32,60,l,1,1.4077,,,,,,,,1.4077,1,0,5,5,1,1,stimuli/white_1.jpg,,l,,,,,,,,
,,,,,,,,,,,,,ald,2,001,male,2023-10-21_22h55.00.712,openIAT,2020.1.0rc3,Win32,60,a,1,2.7292,,,,,,,,2.7292,1,0,6,6,18,1,stimuli/blank.png,Joy,a,,,,,,,,
,,,,,,,,,,,,,ald,2,001,male,2023-10-21_22h55.00.712,openIAT,2020.1.0rc3,Win32,60,l,1,2.144,,,,,,,,2.144,1,0,7,7,17,1,stimuli/blank.png,Evil,l,,,,,,,,
,,,,,,,,,,,,,ald,2,001,male,2023-10-21_22h55.00.712,openIAT,2020.1.0rc3,Win32,60,a,1,1.6087,,,,,,,,1.6087,1,0,8,8,0,1,stimuli/black_1.jpg,,a,,,,,,,,
,,,,,,,,,,,,,ald,2,001,male,2023-10-21_22h55.00.712,openIAT,2020.1.0rc3,Win32,60,l,1,1.3282,,,,,,,,1.3282,1,0,9,9,5,1,stimuli/white_3.jpg,,l,,,,,,,,
,,,,,,,,,,,,,ald,2,001,male,2023-10-21_22h55.00.712,openIAT,2020.1.0rc3,Win32,60,a,1,1.2328,,,,,,,,1.2328,1,0,10,10,2,1,stimuli/black_2.jpg,,a,,,,,,,,
,,,,,,,,,,,,,ald,2,001,male,2023-10-21_22h55.00.712,openIAT,2020.1.0rc3,Win32,60,a,1,2.7784,,,,,,,,2.7784,1,0,11,11,16,1,stimuli/blank.png,Love,a,,,,,,,,
,,,,,,,,,,,,,ald,2,001,male,2023-10-21_22h55.00.712,openIAT,2020.1.0rc3,Win32,60,a,1,1.9134,,,,,,,,1.9134,1,0,12,12,8,1,stimuli/black_5.jpg,,a,,,,,,,,
,,,,,,,,,,,,,ald,2,001,male,2023-10-21_22h55.00.712,openIAT,2020.1.0rc3,Win32,60,a,0,1.5673,,,,,,,,1.5673,0,0,13,13,19,1,stimuli/blank.png,Nasty,l,,,,,,,,
,,,,,,,,,,,,,ald,2,001,male,2023-10-21_22h55.00.712,openIAT,2020.1.0rc3,Win32,60,l,0,2.0467,,,,,,,,2.0467,0,0,14,14,12,1,stimuli/blank.png,Happy,a,,,,,,,,
,,,,,,,,,,,,,ald,2,001,male,2023-10-21_22h55.00.712,openIAT,2020.1.0rc3,Win32,60,l,1,1.685,,,,,,,,1.685,1,0,15,15,11,1,stimuli/blank.png,Bad,l,,,,,,,,
,,,,,,,,,,,,,ald,2,001,male,2023-10-21_22h55.00.712,openIAT,2020.1.0rc3,Win32,60,l,1,2.4551,,,,,,,,2.4551,1,0,16,16,3,1,stimuli/white_2.jpg,,l,,,,,,,,
,,,,,,,,,,,,,ald,2,001,male,2023-10-21_22h55.00.712,openIAT,2020.1.0rc3,Win32,60,a,1,0.9618,,,,,,,,0.9618,1,0,17,17,6,1,stimuli/black_4.jpg,,a,,,,,,,,
,,,,,,,,,,,,,ald,2,001,male,2023-10-21_22h55.00.712,openIAT,2020.1.0rc3,Win32,60,l,1,1.4945,,,,,,,,1.4945,1,0,18,18,7,1,stimuli/white_4.jpg,,l,,,,,,,,
,,,,,,,,,,,,,ald,2,001,male,2023-10-21_22h55.00.712,openIAT,2020.1.0rc3,Win32,60,l,1,3.978,,,,,,,,3.978,1,0,19,19,15,1,stimuli/blank.png,Agony,l,,,,,,,,
,,,,,,,,,,,,,ald,2,001,male,2023-10-21_22h55.00.712,openIAT,2020.1.0rc3,Win32,60,,,,,,,,,,,,,,,,,,,,,0,2,2,2,1,incong_test.xlsx,"A = 
Black or 
Positive","L = 
White or 
Negative"
,,,,,,,,,,,,,ald,2,001,male,2023-10-21_22h55.00.712,openIAT,2020.1.0rc3,Win32,60,l,1,1.0595,,,,,,,,1.0595,1,0,0,0,8,1,stimuli/black_5.jpg,NaN,l,,,,,,,,
,,,,,,,,,,,,,ald,2,001,male,2023-10-21_22h55.00.712,openIAT,2020.1.0rc3,Win32,60,l,1,0.9026,,,,,,,,0.9026,1,0,1,1,6,1,stimuli/black_4.jpg,NaN,l,,,,,,,,
,,,,,,,,,,,,,ald,2,001,male,2023-10-21_22h55.00.712,openIAT,2020.1.0rc3,Win32,60,a,1,3.748,,,,,,,,3.748,1,0,2,2,5,1,stimuli/white_3.jpg,NaN,a,,,,,,,,
,,,,,,,,,,,,,ald,2,001,male,2023-10-21_22h55.00.712,openIAT,2020.1.0rc3,Win32,60,l,1,1.3356,,,,,,,,1.3356,1,0,3,3,4,1,stimuli/black_3.jpg,NaN,l,,,,,,,,
,,,,,,,,,,,,,ald,2,001,male,2023-10-21_22h55.00.712,openIAT,2020.1.0rc3,Win32,60,l,0,1.6298,,,,,,,,1.6298,0,0,4,4,3,1,stimuli/white_2.jpg,NaN,a,,,,,,,,
,,,,,,,,,,,,,ald,2,001,male,2023-10-21_22h55.00.712,openIAT,2020.1.0rc3,Win32,60,a,1,2.8439,,,,,,,,2.8439,1,0,5,5,1,1,stimuli/white_1.jpg,NaN,a,,,,,,,,
,,,,,,,,,,,,,ald,2,001,male,2023-10-21_22h55.00.712,openIAT,2020.1.0rc3,Win32,60,l,1,1.1495,,,,,,,,1.1495,1,0,6,6,2,1,stimuli/black_2.jpg,NaN,l,,,,,,,,
,,,,,,,,,,,,,ald,2,001,male,2023-10-21_22h55.00.712,openIAT,2020.1.0rc3,Win32,60,a,1,2.0312,,,,,,,,2.0312,1,0,7,7,7,1,stimuli/white_4.jpg,NaN,a,,,,,,,,
,,,,,,,,,,,,,ald,2,001,male,2023-10-21_22h55.00.712,openIAT,2020.1.0rc3,Win32,60,a,1,1.7326,,,,,,,,1.7326,1,0,8,8,9,1,stimuli/white_5.jpg,NaN,a,,,,,,,,
,,,,,,,,,,,,,ald,2,001,male,2023-10-21_22h55.00.712,openIAT,2020.1.0rc3,Win32,60,l,1,0.7994,,,,,,,,0.7994,1,0,9,9,0,1,stimuli/black_1.jpg,NaN,l,,,,,,,,
,,,,,,,,,,,,,ald,2,001,male,2023-10-21_22h55.00.712,openIAT,2020.1.0rc3,Win32,60,,,,,,,,,,,,,,,,,,,,,0,3,3,3,1,cong_train.xlsx,"A = 
White","L = 
Black"
