instr_done_touch.x,instr_done_touch.y,instr_done_touch.leftButton,instr_done_touch.midButton,instr_done_touch.rightButton,instr_done_touch.clicked_name,instruct_pages.thisRepN,instruct_pages.thisTrialN,instruct_pages.thisN,instruct_pages.thisIndex,instruct_pages.ran,pageN,instruct_text,participant,order,session,gender,date,expName,psychopyVersion,OS,frameRate,key_resp.keys,key_resp.corr,key_resp.rt,touch_resp.x,touch_resp.y,touch_resp.leftButton,touch_resp.midButton,touch_resp.rightButton,touch_resp.time,touch_resp.clicked_name,rt,corr,trials.thisRepN,trials.thisTrialN,trials.thisN,trials.thisIndex,trials.ran,stimImage,stimWord,CorrAns,blocks.thisRepN,blocks.thisTrialN,blocks.thisN,blocks.thisIndex,blocks.ran,conds_file,label_left,label_right
0.05092594,-0.389814828,1,0,0,instr_done_button,0,0,0,0,1,1,"You will be presented with words or images to classify into categories using either the 'A' or 'L' key. 
 
Try to go as fast as possible while making as few mistakes as possible. 
",ali,1,001,male,2021-08-30_15h13.56.486,openIAT,2020.1.0rc3,Win32,60,,,,,,,,,,,,,,,,,,,,,,,,,,,,
0.019444458,-0.162962973,0,0,0,,0,1,1,1,1,2,"Keep in mind: 
 
1) Labels at the top of the screen indicate which catogory goes with which key. 
 
2) Each word or image has a correct catogory classification 
 
3) Keep your index fingers on the A and L keys to enable a rapid response. 
 
4) The test gives no results if you go slow- please try to go as fast as possible 
",ali,1,001,male,2021-08-30_15h13.56.486,openIAT,2020.1.0rc3,Win32,60,,,,,,,,,,,,,,,,,,,,,,,,,,,,
,,,,,,,,,,,,,ali,1,001,male,2021-08-30_15h13.56.486,openIAT,2020.1.0rc3,Win32,60,a,1,2.9277,,,,,,,,2.9277,1,0,0,0,8,1,stimuli/blank.png,Joy,a,,,,,,,,
,,,,,,,,,,,,,ali,1,001,male,2021-08-30_15h13.56.486,openIAT,2020.1.0rc3,Win32,60,l,1,1.0392,,,,,,,,1.0392,1,0,1,1,1,1,stimuli/blank.png,Bad,l,,,,,,,,
,,,,,,,,,,,,,ali,1,001,male,2021-08-30_15h13.56.486,openIAT,2020.1.0rc3,Win32,60,l,1,1.0862,,,,,,,,1.0862,1,0,2,2,3,1,stimuli/blank.png,Hurt,l,,,,,,,,
,,,,,,,,,,,,,ali,1,001,male,2021-08-30_15h13.56.486,openIAT,2020.1.0rc3,Win32,60,l,1,1.0994,,,,,,,,1.0994,1,0,3,3,7,1,stimuli/blank.png,Evil,l,,,,,,,,
,,,,,,,,,,,,,ali,1,001,male,2021-08-30_15h13.56.486,openIAT,2020.1.0rc3,Win32,60,a,1,0.7135,,,,,,,,0.7135,1,0,4,4,6,1,stimuli/blank.png,Love,a,,,,,,,,
,,,,,,,,,,,,,ali,1,001,male,2021-08-30_15h13.56.486,openIAT,2020.1.0rc3,Win32,60,a,1,2.0993,,,,,,,,2.0993,1,0,5,5,4,1,stimuli/blank.png,Pleasure,a,,,,,,,,
,,,,,,,,,,,,,ali,1,001,male,2021-08-30_15h13.56.486,openIAT,2020.1.0rc3,Win32,60,l,1,1.4317,,,,,,,,1.4317,1,0,6,6,5,1,stimuli/blank.png,Agony,l,,,,,,,,
,,,,,,,,,,,,,ali,1,001,male,2021-08-30_15h13.56.486,openIAT,2020.1.0rc3,Win32,60,a,1,0.7507,,,,,,,,0.7507,1,0,7,7,2,1,stimuli/blank.png,Happy,a,,,,,,,,
,,,,,,,,,,,,,ali,1,001,male,2021-08-30_15h13.56.486,openIAT,2020.1.0rc3,Win32,60,a,1,0.5631,,,,,,,,0.5631,1,0,8,8,0,1,stimuli/blank.png,Good,a,,,,,,,,
,,,,,,,,,,,,,ali,1,001,male,2021-08-30_15h13.56.486,openIAT,2020.1.0rc3,Win32,60,l,1,1.4692,,,,,,,,1.4692,1,0,9,9,9,1,stimuli/blank.png,Nasty,l,,,,,,,,
,,,,,,,,,,,,,ali,1,001,male,2021-08-30_15h13.56.486,openIAT,2020.1.0rc3,Win32,60,,,,,,,,,,,,,,,,,,,,,0,0,0,0,1,pos_neg_train.xlsx,"A = 
Positive","L = 
Negative"
,,,,,,,,,,,,,ali,1,001,male,2021-08-30_15h13.56.486,openIAT,2020.1.0rc3,Win32,60,l,1,1.9292,,,,,,,,1.9292,1,0,0,0,8,1,stimuli/black_5.jpg,NaN,l,,,,,,,,
,,,,,,,,,,,,,ali,1,001,male,2021-08-30_15h13.56.486,openIAT,2020.1.0rc3,Win32,60,l,1,0.6348,,,,,,,,0.6348,1,0,1,1,2,1,stimuli/black_2.jpg,NaN,l,,,,,,,,
,,,,,,,,,,,,,ali,1,001,male,2021-08-30_15h13.56.486,openIAT,2020.1.0rc3,Win32,60,a,1,1.4992,,,,,,,,1.4992,1,0,2,2,5,1,stimuli/white_3.jpg,NaN,a,,,,,,,,
,,,,,,,,,,,,,ali,1,001,male,2021-08-30_15h13.56.486,openIAT,2020.1.0rc3,Win32,60,a,1,0.6845,,,,,,,,0.6845,1,0,3,3,7,1,stimuli/white_4.jpg,NaN,a,,,,,,,,
,,,,,,,,,,,,,ali,1,001,male,2021-08-30_15h13.56.486,openIAT,2020.1.0rc3,Win32,60,a,1,0.667,,,,,,,,0.667,1,0,4,4,1,1,stimuli/white_1.jpg,NaN,a,,,,,,,,
,,,,,,,,,,,,,ali,1,001,male,2021-08-30_15h13.56.486,openIAT,2020.1.0rc3,Win32,60,l,1,0.6292,,,,,,,,0.6292,1,0,5,5,0,1,stimuli/black_1.jpg,NaN,l,,,,,,,,
,,,,,,,,,,,,,ali,1,001,male,2021-08-30_15h13.56.486,openIAT,2020.1.0rc3,Win32,60,l,1,0.5318,,,,,,,,0.5318,1,0,6,6,4,1,stimuli/black_3.jpg,NaN,l,,,,,,,,
,,,,,,,,,,,,,ali,1,001,male,2021-08-30_15h13.56.486,openIAT,2020.1.0rc3,Win32,60,a,1,0.6489,,,,,,,,0.6489,1,0,7,7,9,1,stimuli/white_5.jpg,NaN,a,,,,,,,,
,,,,,,,,,,,,,ali,1,001,male,2021-08-30_15h13.56.486,openIAT,2020.1.0rc3,Win32,60,a,1,0.5496,,,,,,,,0.5496,1,0,8,8,3,1,stimuli/white_2.jpg,NaN,a,,,,,,,,
,,,,,,,,,,,,,ali,1,001,male,2021-08-30_15h13.56.486,openIAT,2020.1.0rc3,Win32,60,l,1,0.625,,,,,,,,0.625,1,0,9,9,6,1,stimuli/black_4.jpg,NaN,l,,,,,,,,
,,,,,,,,,,,,,ali,1,001,male,2021-08-30_15h13.56.486,openIAT,2020.1.0rc3,Win32,60,,,,,,,,,,,,,,,,,,,,,0,1,1,1,1,cong_train.xlsx,"A = 
White","L = 
Black"
,,,,,,,,,,,,,ali,1,001,male,2021-08-30_15h13.56.486,openIAT,2020.1.0rc3,Win32,60,a,1,1.4114,,,,,,,,1.4114,1,0,0,0,18,1,stimuli/blank.png,Joy,a,,,,,,,,
,,,,,,,,,,,,,ali,1,001,male,2021-08-30_15h13.56.486,openIAT,2020.1.0rc3,Win32,60,l,1,1.6424,,,,,,,,1.6424,1,0,1,1,4,1,stimuli/black_3.jpg,NaN,l,,,,,,,,
,,,,,,,,,,,,,ali,1,001,male,2021-08-30_15h13.56.486,openIAT,2020.1.0rc3,Win32,60,l,0,1.1534,,,,,,,,1.1534,0,0,2,2,5,1,stimuli/white_3.jpg,NaN,a,,,,,,,,
,,,,,,,,,,,,,ali,1,001,male,2021-08-30_15h13.56.486,openIAT,2020.1.0rc3,Win32,60,a,1,1.8024,,,,,,,,1.8024,1,0,3,3,10,1,stimuli/blank.png,Good,a,,,,,,,,
,,,,,,,,,,,,,ali,1,001,male,2021-08-30_15h13.56.486,openIAT,2020.1.0rc3,Win32,60,l,0,1.4375,,,,,,,,1.4375,0,0,4,4,14,1,stimuli/blank.png,Pleasure,a,,,,,,,,
,,,,,,,,,,,,,ali,1,001,male,2021-08-30_15h13.56.486,openIAT,2020.1.0rc3,Win32,60,l,1,3.6373,,,,,,,,3.6373,1,0,5,5,19,1,stimuli/blank.png,Nasty,l,,,,,,,,
,,,,,,,,,,,,,ali,1,001,male,2021-08-30_15h13.56.486,openIAT,2020.1.0rc3,Win32,60,l,1,2.3402,,,,,,,,2.3402,1,0,6,6,2,1,stimuli/black_2.jpg,NaN,l,,,,,,,,
,,,,,,,,,,,,,ali,1,001,male,2021-08-30_15h13.56.486,openIAT,2020.1.0rc3,Win32,60,l,1,3.7889,,,,,,,,3.7889,1,0,7,7,15,1,stimuli/blank.png,Agony,l,,,,,,,,
,,,,,,,,,,,,,ali,1,001,male,2021-08-30_15h13.56.486,openIAT,2020.1.0rc3,Win32,60,a,1,3.591,,,,,,,,3.591,1,0,8,8,7,1,stimuli/white_4.jpg,NaN,a,,,,,,,,
,,,,,,,,,,,,,ali,1,001,male,2021-08-30_15h13.56.486,openIAT,2020.1.0rc3,Win32,60,l,1,1.2784,,,,,,,,1.2784,1,0,9,9,0,1,stimuli/black_1.jpg,NaN,l,,,,,,,,
,,,,,,,,,,,,,ali,1,001,male,2021-08-30_15h13.56.486,openIAT,2020.1.0rc3,Win32,60,a,1,1.0219,,,,,,,,1.0219,1,0,10,10,9,1,stimuli/white_5.jpg,NaN,a,,,,,,,,
,,,,,,,,,,,,,ali,1,001,male,2021-08-30_15h13.56.486,openIAT,2020.1.0rc3,Win32,60,l,1,1.2623,,,,,,,,1.2623,1,0,11,11,11,1,stimuli/blank.png,Bad,l,,,,,,,,
,,,,,,,,,,,,,ali,1,001,male,2021-08-30_15h13.56.486,openIAT,2020.1.0rc3,Win32,60,a,1,0.6533,,,,,,,,0.6533,1,0,12,12,16,1,stimuli/blank.png,Love,a,,,,,,,,
,,,,,,,,,,,,,ali,1,001,male,2021-08-30_15h13.56.486,openIAT,2020.1.0rc3,Win32,60,l,1,0.8694,,,,,,,,0.8694,1,0,13,13,8,1,stimuli/black_5.jpg,NaN,l,,,,,,,,
,,,,,,,,,,,,,ali,1,001,male,2021-08-30_15h13.56.486,openIAT,2020.1.0rc3,Win32,60,a,1,0.7055,,,,,,,,0.7055,1,0,14,14,3,1,stimuli/white_2.jpg,NaN,a,,,,,,,,
,,,,,,,,,,,,,ali,1,001,male,2021-08-30_15h13.56.486,openIAT,2020.1.0rc3,Win32,60,l,1,0.5053,,,,,,,,0.5053,1,0,15,15,6,1,stimuli/black_4.jpg,NaN,l,,,,,,,,
,,,,,,,,,,,,,ali,1,001,male,2021-08-30_15h13.56.486,openIAT,2020.1.0rc3,Win32,60,a,1,0.5938,,,,,,,,0.5938,1,0,16,16,1,1,stimuli/white_1.jpg,NaN,a,,,,,,,,
,,,,,,,,,,,,,ali,1,001,male,2021-08-30_15h13.56.486,openIAT,2020.1.0rc3,Win32,60,a,1,0.655,,,,,,,,0.655,1,0,17,17,12,1,stimuli/blank.png,Happy,a,,,,,,,,
,,,,,,,,,,,,,ali,1,001,male,2021-08-30_15h13.56.486,openIAT,2020.1.0rc3,Win32,60,l,1,0.7787,,,,,,,,0.7787,1,0,18,18,17,1,stimuli/blank.png,Evil,l,,,,,,,,
,,,,,,,,,,,,,ali,1,001,male,2021-08-30_15h13.56.486,openIAT,2020.1.0rc3,Win32,60,l,1,0.7254,,,,,,,,0.7254,1,0,19,19,13,1,stimuli/blank.png,Hurt,l,,,,,,,,
,,,,,,,,,,,,,ali,1,001,male,2021-08-30_15h13.56.486,openIAT,2020.1.0rc3,Win32,60,,,,,,,,,,,,,,,,,,,,,0,2,2,2,1,cong_test.xlsx,"A = 
White or 
Positive","L = 
Black or 
Negative"
,,,,,,,,,,,,,ali,1,001,male,2021-08-30_15h13.56.486,openIAT,2020.1.0rc3,Win32,60,a,1,0.8223,,,,,,,,0.8223,1,0,0,0,2,1,stimuli/black_2.jpg,,a,,,,,,,,
,,,,,,,,,,,,,ali,1,001,male,2021-08-30_15h13.56.486,openIAT,2020.1.0rc3,Win32,60,a,1,0.4794,,,,,,,,0.4794,1,0,1,1,6,1,stimuli/black_4.jpg,,a,,,,,,,,
,,,,,,,,,,,,,ali,1,001,male,2021-08-30_15h13.56.486,openIAT,2020.1.0rc3,Win32,60,a,0,0.456,,,,,,,,0.456,0,0,2,2,5,1,stimuli/white_3.jpg,,l,,,,,,,,
,,,,,,,,,,,,,ali,1,001,male,2021-08-30_15h13.56.486,openIAT,2020.1.0rc3,Win32,60,a,1,0.6515,,,,,,,,0.6515,1,0,3,3,4,1,stimuli/black_3.jpg,,a,,,,,,,,
,,,,,,,,,,,,,ali,1,001,male,2021-08-30_15h13.56.486,openIAT,2020.1.0rc3,Win32,60,a,0,0.9504,,,,,,,,0.9504,0,0,4,4,9,1,stimuli/white_5.jpg,,l,,,,,,,,
,,,,,,,,,,,,,ali,1,001,male,2021-08-30_15h13.56.486,openIAT,2020.1.0rc3,Win32,60,a,1,0.8354,,,,,,,,0.8354,1,0,5,5,0,1,stimuli/black_1.jpg,,a,,,,,,,,
,,,,,,,,,,,,,ali,1,001,male,2021-08-30_15h13.56.486,openIAT,2020.1.0rc3,Win32,60,l,1,0.6207,,,,,,,,0.6207,1,0,6,6,1,1,stimuli/white_1.jpg,,l,,,,,,,,
,,,,,,,,,,,,,ali,1,001,male,2021-08-30_15h13.56.486,openIAT,2020.1.0rc3,Win32,60,l,1,0.4525,,,,,,,,0.4525,1,0,7,7,3,1,stimuli/white_2.jpg,,l,,,,,,,,
,,,,,,,,,,,,,ali,1,001,male,2021-08-30_15h13.56.486,openIAT,2020.1.0rc3,Win32,60,l,1,0.6251,,,,,,,,0.6251,1,0,8,8,7,1,stimuli/white_4.jpg,,l,,,,,,,,
,,,,,,,,,,,,,ali,1,001,male,2021-08-30_15h13.56.486,openIAT,2020.1.0rc3,Win32,60,a,1,0.536,,,,,,,,0.536,1,0,9,9,8,1,stimuli/black_5.jpg,,a,,,,,,,,
,,,,,,,,,,,,,ali,1,001,male,2021-08-30_15h13.56.486,openIAT,2020.1.0rc3,Win32,60,,,,,,,,,,,,,,,,,,,,,0,3,3,3,1,incong_train.xlsx,"A = 
Black","L = 
White"
,,,,,,,,,,,,,ali,1,001,male,2021-08-30_15h13.56.486,openIAT,2020.1.0rc3,Win32,60,a,1,0.6523,,,,,,,,0.6523,1,0,0,0,12,1,stimuli/blank.png,Happy,a,,,,,,,,
,,,,,,,,,,,,,ali,1,001,male,2021-08-30_15h13.56.486,openIAT,2020.1.0rc3,Win32,60,l,0,0.9374,,,,,,,,0.9374,0,0,1,1,14,1,stimuli/blank.png,Pleasure,a,,,,,,,,
,,,,,,,,,,,,,ali,1,001,male,2021-08-30_15h13.56.486,openIAT,2020.1.0rc3,Win32,60,l,1,0.9233,,,,,,,,0.9233,1,0,2,2,17,1,stimuli/blank.png,Evil,l,,,,,,,,
,,,,,,,,,,,,,ali,1,001,male,2021-08-30_15h13.56.486,openIAT,2020.1.0rc3,Win32,60,a,1,0.5566,,,,,,,,0.5566,1,0,3,3,8,1,stimuli/black_5.jpg,,a,,,,,,,,
,,,,,,,,,,,,,ali,1,001,male,2021-08-30_15h13.56.486,openIAT,2020.1.0rc3,Win32,60,l,1,1.9713,,,,,,,,1.9713,1,0,4,4,15,1,stimuli/blank.png,Agony,l,,,,,,,,
,,,,,,,,,,,,,ali,1,001,male,2021-08-30_15h13.56.486,openIAT,2020.1.0rc3,Win32,60,l,1,0.9562,,,,,,,,0.9562,1,0,5,5,3,1,stimuli/white_2.jpg,,l,,,,,,,,
,,,,,,,,,,,,,ali,1,001,male,2021-08-30_15h13.56.486,openIAT,2020.1.0rc3,Win32,60,l,1,0.6918,,,,,,,,0.6918,1,0,6,6,9,1,stimuli/white_5.jpg,,l,,,,,,,,
,,,,,,,,,,,,,ali,1,001,male,2021-08-30_15h13.56.486,openIAT,2020.1.0rc3,Win32,60,a,1,0.8238,,,,,,,,0.8238,1,0,7,7,18,1,stimuli/blank.png,Joy,a,,,,,,,,
,,,,,,,,,,,,,ali,1,001,male,2021-08-30_15h13.56.486,openIAT,2020.1.0rc3,Win32,60,a,1,0.5418,,,,,,,,0.5418,1,0,8,8,10,1,stimuli/blank.png,Good,a,,,,,,,,
,,,,,,,,,,,,,ali,1,001,male,2021-08-30_15h13.56.486,openIAT,2020.1.0rc3,Win32,60,l,1,0.6243,,,,,,,,0.6243,1,0,9,9,19,1,stimuli/blank.png,Nasty,l,,,,,,,,
,,,,,,,,,,,,,ali,1,001,male,2021-08-30_15h13.56.486,openIAT,2020.1.0rc3,Win32,60,a,1,0.5349,,,,,,,,0.5349,1,0,10,10,4,1,stimuli/black_3.jpg,,a,,,,,,,,
,,,,,,,,,,,,,ali,1,001,male,2021-08-30_15h13.56.486,openIAT,2020.1.0rc3,Win32,60,l,0,0.8587,,,,,,,,0.8587,0,0,11,11,16,1,stimuli/blank.png,Love,a,,,,,,,,
,,,,,,,,,,,,,ali,1,001,male,2021-08-30_15h13.56.486,openIAT,2020.1.0rc3,Win32,60,a,1,0.9214,,,,,,,,0.9214,1,0,12,12,2,1,stimuli/black_2.jpg,,a,,,,,,,,
,,,,,,,,,,,,,ali,1,001,male,2021-08-30_15h13.56.486,openIAT,2020.1.0rc3,Win32,60,l,1,0.7374,,,,,,,,0.7374,1,0,13,13,11,1,stimuli/blank.png,Bad,l,,,,,,,,
,,,,,,,,,,,,,ali,1,001,male,2021-08-30_15h13.56.486,openIAT,2020.1.0rc3,Win32,60,l,1,0.7863,,,,,,,,0.7863,1,0,14,14,5,1,stimuli/white_3.jpg,,l,,,,,,,,
,,,,,,,,,,,,,ali,1,001,male,2021-08-30_15h13.56.486,openIAT,2020.1.0rc3,Win32,60,l,1,0.6065,,,,,,,,0.6065,1,0,15,15,1,1,stimuli/white_1.jpg,,l,,,,,,,,
,,,,,,,,,,,,,ali,1,001,male,2021-08-30_15h13.56.486,openIAT,2020.1.0rc3,Win32,60,l,1,0.4911,,,,,,,,0.4911,1,0,16,16,7,1,stimuli/white_4.jpg,,l,,,,,,,,
,,,,,,,,,,,,,ali,1,001,male,2021-08-30_15h13.56.486,openIAT,2020.1.0rc3,Win32,60,a,1,0.4629,,,,,,,,0.4629,1,0,17,17,0,1,stimuli/black_1.jpg,,a,,,,,,,,
,,,,,,,,,,,,,ali,1,001,male,2021-08-30_15h13.56.486,openIAT,2020.1.0rc3,Win32,60,a,1,0.6564,,,,,,,,0.6564,1,0,18,18,6,1,stimuli/black_4.jpg,,a,,,,,,,,
,,,,,,,,,,,,,ali,1,001,male,2021-08-30_15h13.56.486,openIAT,2020.1.0rc3,Win32,60,l,1,0.6463,,,,,,,,0.6463,1,0,19,19,13,1,stimuli/blank.png,Hurt,l,,,,,,,,
