instr_done_touch.x,instr_done_touch.y,instr_done_touch.leftButton,instr_done_touch.midButton,instr_done_touch.rightButton,instr_done_touch.clicked_name,instruct_pages.thisRepN,instruct_pages.thisTrialN,instruct_pages.thisN,instruct_pages.thisIndex,instruct_pages.ran,pageN,instruct_text,participant,order,session,gender,date,expName,psychopyVersion,OS,frameRate,key_resp.keys,key_resp.corr,key_resp.rt,touch_resp.x,touch_resp.y,touch_resp.leftButton,touch_resp.midButton,touch_resp.rightButton,touch_resp.time,touch_resp.clicked_name,rt,corr,trials.thisRepN,trials.thisTrialN,trials.thisN,trials.thisIndex,trials.ran,stimImage,stimWord,CorrAns,blocks.thisRepN,blocks.thisTrialN,blocks.thisN,blocks.thisIndex,blocks.ran,conds_file,label_left,label_right
0.189814843,-0.375925954,1,0,0,instr_done_button,0,0,0,0,1,1,"You will be presented with words or images to classify into categories using either the 'A' or 'L' key. 
 
Try to go as fast as possible while making as few mistakes as possible. 
",andrea,1,001,female,2022-08-25_15h30.53.466,openIAT,2020.1.0rc3,Win32,60,,,,,,,,,,,,,,,,,,,,,,,,,,,,
0.074074131,-0.429629686,1,0,0,instr_done_button,0,1,1,1,1,2,"Keep in mind: 
 
1) Labels at the top of the screen indicate which catogory goes with which key. 
 
2) Each word or image has a correct catogory classification 
 
3) Keep your index fingers on the A and L keys to enable a rapid response. 
 
4) The test gives no results if you go slow- please try to go as fast as possible 
",andrea,1,001,female,2022-08-25_15h30.53.466,openIAT,2020.1.0rc3,Win32,60,,,,,,,,,,,,,,,,,,,,,,,,,,,,
,,,,,,,,,,,,,andrea,1,001,female,2022-08-25_15h30.53.466,openIAT,2020.1.0rc3,Win32,60,l,1,2.295,,,,,,,,2.295,1,0,0,0,7,1,stimuli/blank.png,Evil,l,,,,,,,,
,,,,,,,,,,,,,andrea,1,001,female,2022-08-25_15h30.53.466,openIAT,2020.1.0rc3,Win32,60,a,0,0.1989,,,,,,,,0.1989,0,0,1,1,3,1,stimuli/blank.png,Hurt,l,,,,,,,,
,,,,,,,,,,,,,andrea,1,001,female,2022-08-25_15h30.53.466,openIAT,2020.1.0rc3,Win32,60,a,1,1.6121,,,,,,,,1.6121,1,0,2,2,0,1,stimuli/blank.png,Good,a,,,,,,,,
,,,,,,,,,,,,,andrea,1,001,female,2022-08-25_15h30.53.466,openIAT,2020.1.0rc3,Win32,60,a,1,0.866,,,,,,,,0.866,1,0,3,3,2,1,stimuli/blank.png,Happy,a,,,,,,,,
,,,,,,,,,,,,,andrea,1,001,female,2022-08-25_15h30.53.466,openIAT,2020.1.0rc3,Win32,60,l,1,0.7531,,,,,,,,0.7531,1,0,4,4,1,1,stimuli/blank.png,Bad,l,,,,,,,,
,,,,,,,,,,,,,andrea,1,001,female,2022-08-25_15h30.53.466,openIAT,2020.1.0rc3,Win32,60,l,1,1.2967,,,,,,,,1.2967,1,0,5,5,5,1,stimuli/blank.png,Agony,l,,,,,,,,
,,,,,,,,,,,,,andrea,1,001,female,2022-08-25_15h30.53.466,openIAT,2020.1.0rc3,Win32,60,a,1,0.9159,,,,,,,,0.9159,1,0,6,6,6,1,stimuli/blank.png,Love,a,,,,,,,,
,,,,,,,,,,,,,andrea,1,001,female,2022-08-25_15h30.53.466,openIAT,2020.1.0rc3,Win32,60,a,1,0.1783,,,,,,,,0.1783,1,0,7,7,4,1,stimuli/blank.png,Pleasure,a,,,,,,,,
,,,,,,,,,,,,,andrea,1,001,female,2022-08-25_15h30.53.466,openIAT,2020.1.0rc3,Win32,60,l,1,1.1791,,,,,,,,1.1791,1,0,8,8,9,1,stimuli/blank.png,Nasty,l,,,,,,,,
,,,,,,,,,,,,,andrea,1,001,female,2022-08-25_15h30.53.466,openIAT,2020.1.0rc3,Win32,60,a,1,0.7983,,,,,,,,0.7983,1,0,9,9,8,1,stimuli/blank.png,Joy,a,,,,,,,,
,,,,,,,,,,,,,andrea,1,001,female,2022-08-25_15h30.53.466,openIAT,2020.1.0rc3,Win32,60,,,,,,,,,,,,,,,,,,,,,0,0,0,0,1,pos_neg_train.xlsx,"A = 
Positive","L = 
Negative"
,,,,,,,,,,,,,andrea,1,001,female,2022-08-25_15h30.53.466,openIAT,2020.1.0rc3,Win32,60,a,1,1.9336,,,,,,,,1.9336,1,0,0,0,7,1,stimuli/white_4.jpg,NaN,a,,,,,,,,
,,,,,,,,,,,,,andrea,1,001,female,2022-08-25_15h30.53.466,openIAT,2020.1.0rc3,Win32,60,a,1,1.9174,,,,,,,,1.9174,1,0,1,1,3,1,stimuli/white_2.jpg,NaN,a,,,,,,,,
,,,,,,,,,,,,,andrea,1,001,female,2022-08-25_15h30.53.466,openIAT,2020.1.0rc3,Win32,60,l,1,1.0673,,,,,,,,1.0673,1,0,2,2,6,1,stimuli/black_4.jpg,NaN,l,,,,,,,,
,,,,,,,,,,,,,andrea,1,001,female,2022-08-25_15h30.53.466,openIAT,2020.1.0rc3,Win32,60,l,1,0.7507,,,,,,,,0.7507,1,0,3,3,8,1,stimuli/black_5.jpg,NaN,l,,,,,,,,
,,,,,,,,,,,,,andrea,1,001,female,2022-08-25_15h30.53.466,openIAT,2020.1.0rc3,Win32,60,a,1,1.1295,,,,,,,,1.1295,1,0,4,4,9,1,stimuli/white_5.jpg,NaN,a,,,,,,,,
,,,,,,,,,,,,,andrea,1,001,female,2022-08-25_15h30.53.466,openIAT,2020.1.0rc3,Win32,60,a,1,0.623,,,,,,,,0.623,1,0,5,5,5,1,stimuli/white_3.jpg,NaN,a,,,,,,,,
,,,,,,,,,,,,,andrea,1,001,female,2022-08-25_15h30.53.466,openIAT,2020.1.0rc3,Win32,60,a,1,0.8869,,,,,,,,0.8869,1,0,6,6,1,1,stimuli/white_1.jpg,NaN,a,,,,,,,,
,,,,,,,,,,,,,andrea,1,001,female,2022-08-25_15h30.53.466,openIAT,2020.1.0rc3,Win32,60,l,1,0.8532,,,,,,,,0.8532,1,0,7,7,0,1,stimuli/black_1.jpg,NaN,l,,,,,,,,
,,,,,,,,,,,,,andrea,1,001,female,2022-08-25_15h30.53.466,openIAT,2020.1.0rc3,Win32,60,l,1,0.6791,,,,,,,,0.6791,1,0,8,8,4,1,stimuli/black_3.jpg,NaN,l,,,,,,,,
,,,,,,,,,,,,,andrea,1,001,female,2022-08-25_15h30.53.466,openIAT,2020.1.0rc3,Win32,60,l,1,0.7015,,,,,,,,0.7015,1,0,9,9,2,1,stimuli/black_2.jpg,NaN,l,,,,,,,,
,,,,,,,,,,,,,andrea,1,001,female,2022-08-25_15h30.53.466,openIAT,2020.1.0rc3,Win32,60,,,,,,,,,,,,,,,,,,,,,0,1,1,1,1,cong_train.xlsx,"A = 
White","L = 
Black"
,,,,,,,,,,,,,andrea,1,001,female,2022-08-25_15h30.53.466,openIAT,2020.1.0rc3,Win32,60,a,1,2.7659,,,,,,,,2.7659,1,0,0,0,7,1,stimuli/white_4.jpg,NaN,a,,,,,,,,
,,,,,,,,,,,,,andrea,1,001,female,2022-08-25_15h30.53.466,openIAT,2020.1.0rc3,Win32,60,a,1,1.439,,,,,,,,1.439,1,0,1,1,12,1,stimuli/blank.png,Happy,a,,,,,,,,
,,,,,,,,,,,,,andrea,1,001,female,2022-08-25_15h30.53.466,openIAT,2020.1.0rc3,Win32,60,l,1,0.8402,,,,,,,,0.8402,1,0,2,2,6,1,stimuli/black_4.jpg,NaN,l,,,,,,,,
,,,,,,,,,,,,,andrea,1,001,female,2022-08-25_15h30.53.466,openIAT,2020.1.0rc3,Win32,60,l,1,1.0178,,,,,,,,1.0178,1,0,3,3,19,1,stimuli/blank.png,Nasty,l,,,,,,,,
,,,,,,,,,,,,,andrea,1,001,female,2022-08-25_15h30.53.466,openIAT,2020.1.0rc3,Win32,60,a,1,1.2508,,,,,,,,1.2508,1,0,4,4,1,1,stimuli/white_1.jpg,NaN,a,,,,,,,,
,,,,,,,,,,,,,andrea,1,001,female,2022-08-25_15h30.53.466,openIAT,2020.1.0rc3,Win32,60,l,1,0.7776,,,,,,,,0.7776,1,0,5,5,8,1,stimuli/black_5.jpg,NaN,l,,,,,,,,
,,,,,,,,,,,,,andrea,1,001,female,2022-08-25_15h30.53.466,openIAT,2020.1.0rc3,Win32,60,l,1,1.5316,,,,,,,,1.5316,1,0,6,6,11,1,stimuli/blank.png,Bad,l,,,,,,,,
,,,,,,,,,,,,,andrea,1,001,female,2022-08-25_15h30.53.466,openIAT,2020.1.0rc3,Win32,60,a,1,1.5163,,,,,,,,1.5163,1,0,7,7,18,1,stimuli/blank.png,Joy,a,,,,,,,,
,,,,,,,,,,,,,andrea,1,001,female,2022-08-25_15h30.53.466,openIAT,2020.1.0rc3,Win32,60,l,1,0.9935,,,,,,,,0.9935,1,0,8,8,15,1,stimuli/blank.png,Agony,l,,,,,,,,
,,,,,,,,,,,,,andrea,1,001,female,2022-08-25_15h30.53.466,openIAT,2020.1.0rc3,Win32,60,a,1,0.9708,,,,,,,,0.9708,1,0,9,9,10,1,stimuli/blank.png,Good,a,,,,,,,,
,,,,,,,,,,,,,andrea,1,001,female,2022-08-25_15h30.53.466,openIAT,2020.1.0rc3,Win32,60,a,1,0.8227,,,,,,,,0.8227,1,0,10,10,16,1,stimuli/blank.png,Love,a,,,,,,,,
,,,,,,,,,,,,,andrea,1,001,female,2022-08-25_15h30.53.466,openIAT,2020.1.0rc3,Win32,60,l,1,0.7821,,,,,,,,0.7821,1,0,11,11,4,1,stimuli/black_3.jpg,NaN,l,,,,,,,,
,,,,,,,,,,,,,andrea,1,001,female,2022-08-25_15h30.53.466,openIAT,2020.1.0rc3,Win32,60,a,1,0.9082,,,,,,,,0.9082,1,0,12,12,5,1,stimuli/white_3.jpg,NaN,a,,,,,,,,
,,,,,,,,,,,,,andrea,1,001,female,2022-08-25_15h30.53.466,openIAT,2020.1.0rc3,Win32,60,l,1,0.6822,,,,,,,,0.6822,1,0,13,13,0,1,stimuli/black_1.jpg,NaN,l,,,,,,,,
,,,,,,,,,,,,,andrea,1,001,female,2022-08-25_15h30.53.466,openIAT,2020.1.0rc3,Win32,60,l,1,0.7337,,,,,,,,0.7337,1,0,14,14,17,1,stimuli/blank.png,Evil,l,,,,,,,,
,,,,,,,,,,,,,andrea,1,001,female,2022-08-25_15h30.53.466,openIAT,2020.1.0rc3,Win32,60,a,1,0.899,,,,,,,,0.899,1,0,15,15,14,1,stimuli/blank.png,Pleasure,a,,,,,,,,
,,,,,,,,,,,,,andrea,1,001,female,2022-08-25_15h30.53.466,openIAT,2020.1.0rc3,Win32,60,l,1,0.9672,,,,,,,,0.9672,1,0,16,16,13,1,stimuli/blank.png,Hurt,l,,,,,,,,
,,,,,,,,,,,,,andrea,1,001,female,2022-08-25_15h30.53.466,openIAT,2020.1.0rc3,Win32,60,a,1,0.8979,,,,,,,,0.8979,1,0,17,17,3,1,stimuli/white_2.jpg,NaN,a,,,,,,,,
,,,,,,,,,,,,,andrea,1,001,female,2022-08-25_15h30.53.466,openIAT,2020.1.0rc3,Win32,60,a,1,0.8647,,,,,,,,0.8647,1,0,18,18,9,1,stimuli/white_5.jpg,NaN,a,,,,,,,,
,,,,,,,,,,,,,andrea,1,001,female,2022-08-25_15h30.53.466,openIAT,2020.1.0rc3,Win32,60,l,1,0.882,,,,,,,,0.882,1,0,19,19,2,1,stimuli/black_2.jpg,NaN,l,,,,,,,,
,,,,,,,,,,,,,andrea,1,001,female,2022-08-25_15h30.53.466,openIAT,2020.1.0rc3,Win32,60,,,,,,,,,,,,,,,,,,,,,0,2,2,2,1,cong_test.xlsx,"A = 
White or 
Positive","L = 
Black or 
Negative"
,,,,,,,,,,,,,andrea,1,001,female,2022-08-25_15h30.53.466,openIAT,2020.1.0rc3,Win32,60,l,0,0.8613,,,,,,,,0.8613,0,0,0,0,4,1,stimuli/black_3.jpg,,a,,,,,,,,
,,,,,,,,,,,,,andrea,1,001,female,2022-08-25_15h30.53.466,openIAT,2020.1.0rc3,Win32,60,a,1,1.8525,,,,,,,,1.8525,1,0,1,1,0,1,stimuli/black_1.jpg,,a,,,,,,,,
,,,,,,,,,,,,,andrea,1,001,female,2022-08-25_15h30.53.466,openIAT,2020.1.0rc3,Win32,60,l,1,0.8227,,,,,,,,0.8227,1,0,2,2,9,1,stimuli/white_5.jpg,,l,,,,,,,,
,,,,,,,,,,,,,andrea,1,001,female,2022-08-25_15h30.53.466,openIAT,2020.1.0rc3,Win32,60,a,1,0.8236,,,,,,,,0.8236,1,0,3,3,2,1,stimuli/black_2.jpg,,a,,,,,,,,
,,,,,,,,,,,,,andrea,1,001,female,2022-08-25_15h30.53.466,openIAT,2020.1.0rc3,Win32,60,l,1,0.6461,,,,,,,,0.6461,1,0,4,4,5,1,stimuli/white_3.jpg,,l,,,,,,,,
,,,,,,,,,,,,,andrea,1,001,female,2022-08-25_15h30.53.466,openIAT,2020.1.0rc3,Win32,60,l,1,1.0415,,,,,,,,1.0415,1,0,5,5,3,1,stimuli/white_2.jpg,,l,,,,,,,,
,,,,,,,,,,,,,andrea,1,001,female,2022-08-25_15h30.53.466,openIAT,2020.1.0rc3,Win32,60,a,1,0.8285,,,,,,,,0.8285,1,0,6,6,8,1,stimuli/black_5.jpg,,a,,,,,,,,
,,,,,,,,,,,,,andrea,1,001,female,2022-08-25_15h30.53.466,openIAT,2020.1.0rc3,Win32,60,l,1,0.8853,,,,,,,,0.8853,1,0,7,7,1,1,stimuli/white_1.jpg,,l,,,,,,,,
,,,,,,,,,,,,,andrea,1,001,female,2022-08-25_15h30.53.466,openIAT,2020.1.0rc3,Win32,60,a,1,0.9234,,,,,,,,0.9234,1,0,8,8,6,1,stimuli/black_4.jpg,,a,,,,,,,,
,,,,,,,,,,,,,andrea,1,001,female,2022-08-25_15h30.53.466,openIAT,2020.1.0rc3,Win32,60,l,1,0.6493,,,,,,,,0.6493,1,0,9,9,7,1,stimuli/white_4.jpg,,l,,,,,,,,
,,,,,,,,,,,,,andrea,1,001,female,2022-08-25_15h30.53.466,openIAT,2020.1.0rc3,Win32,60,,,,,,,,,,,,,,,,,,,,,0,3,3,3,1,incong_train.xlsx,"A = 
Black","L = 
White"
,,,,,,,,,,,,,andrea,1,001,female,2022-08-25_15h30.53.466,openIAT,2020.1.0rc3,Win32,60,l,1,5.2343,,,,,,,,5.2343,1,0,0,0,19,1,stimuli/blank.png,Nasty,l,,,,,,,,
,,,,,,,,,,,,,andrea,1,001,female,2022-08-25_15h30.53.466,openIAT,2020.1.0rc3,Win32,60,l,1,1.1571,,,,,,,,1.1571,1,0,1,1,1,1,stimuli/white_1.jpg,,l,,,,,,,,
,,,,,,,,,,,,,andrea,1,001,female,2022-08-25_15h30.53.466,openIAT,2020.1.0rc3,Win32,60,a,1,0.9468,,,,,,,,0.9468,1,0,2,2,0,1,stimuli/black_1.jpg,,a,,,,,,,,
,,,,,,,,,,,,,andrea,1,001,female,2022-08-25_15h30.53.466,openIAT,2020.1.0rc3,Win32,60,l,0,1.8295,,,,,,,,1.8295,0,0,3,3,16,1,stimuli/blank.png,Love,a,,,,,,,,
,,,,,,,,,,,,,andrea,1,001,female,2022-08-25_15h30.53.466,openIAT,2020.1.0rc3,Win32,60,l,1,2.2564,,,,,,,,2.2564,1,0,4,4,5,1,stimuli/white_3.jpg,,l,,,,,,,,
,,,,,,,,,,,,,andrea,1,001,female,2022-08-25_15h30.53.466,openIAT,2020.1.0rc3,Win32,60,l,0,1.2874,,,,,,,,1.2874,0,0,5,5,10,1,stimuli/blank.png,Good,a,,,,,,,,
,,,,,,,,,,,,,andrea,1,001,female,2022-08-25_15h30.53.466,openIAT,2020.1.0rc3,Win32,60,a,0,1.8958,,,,,,,,1.8958,0,0,6,6,7,1,stimuli/white_4.jpg,,l,,,,,,,,
,,,,,,,,,,,,,andrea,1,001,female,2022-08-25_15h30.53.466,openIAT,2020.1.0rc3,Win32,60,l,0,1.3229,,,,,,,,1.3229,0,0,7,7,12,1,stimuli/blank.png,Happy,a,,,,,,,,
,,,,,,,,,,,,,andrea,1,001,female,2022-08-25_15h30.53.466,openIAT,2020.1.0rc3,Win32,60,a,1,1.6338,,,,,,,,1.6338,1,0,8,8,18,1,stimuli/blank.png,Joy,a,,,,,,,,
,,,,,,,,,,,,,andrea,1,001,female,2022-08-25_15h30.53.466,openIAT,2020.1.0rc3,Win32,60,l,1,1.8067,,,,,,,,1.8067,1,0,9,9,15,1,stimuli/blank.png,Agony,l,,,,,,,,
,,,,,,,,,,,,,andrea,1,001,female,2022-08-25_15h30.53.466,openIAT,2020.1.0rc3,Win32,60,a,1,1.1141,,,,,,,,1.1141,1,0,10,10,8,1,stimuli/black_5.jpg,,a,,,,,,,,
,,,,,,,,,,,,,andrea,1,001,female,2022-08-25_15h30.53.466,openIAT,2020.1.0rc3,Win32,60,l,0,1.6516,,,,,,,,1.6516,0,0,11,11,4,1,stimuli/black_3.jpg,,a,,,,,,,,
,,,,,,,,,,,,,andrea,1,001,female,2022-08-25_15h30.53.466,openIAT,2020.1.0rc3,Win32,60,a,1,1.8538,,,,,,,,1.8538,1,0,12,12,6,1,stimuli/black_4.jpg,,a,,,,,,,,
,,,,,,,,,,,,,andrea,1,001,female,2022-08-25_15h30.53.466,openIAT,2020.1.0rc3,Win32,60,a,0,1.1608,,,,,,,,1.1608,0,0,13,13,17,1,stimuli/blank.png,Evil,l,,,,,,,,
,,,,,,,,,,,,,andrea,1,001,female,2022-08-25_15h30.53.466,openIAT,2020.1.0rc3,Win32,60,l,1,0.9009,,,,,,,,0.9009,1,0,14,14,13,1,stimuli/blank.png,Hurt,l,,,,,,,,
,,,,,,,,,,,,,andrea,1,001,female,2022-08-25_15h30.53.466,openIAT,2020.1.0rc3,Win32,60,l,0,0.729,,,,,,,,0.729,0,0,15,15,2,1,stimuli/black_2.jpg,,a,,,,,,,,
,,,,,,,,,,,,,andrea,1,001,female,2022-08-25_15h30.53.466,openIAT,2020.1.0rc3,Win32,60,l,1,1.4078,,,,,,,,1.4078,1,0,16,16,3,1,stimuli/white_2.jpg,,l,,,,,,,,
,,,,,,,,,,,,,andrea,1,001,female,2022-08-25_15h30.53.466,openIAT,2020.1.0rc3,Win32,60,l,1,1.6521,,,,,,,,1.6521,1,0,17,17,11,1,stimuli/blank.png,Bad,l,,,,,,,,
,,,,,,,,,,,,,andrea,1,001,female,2022-08-25_15h30.53.466,openIAT,2020.1.0rc3,Win32,60,l,1,1.0509,,,,,,,,1.0509,1,0,18,18,9,1,stimuli/white_5.jpg,,l,,,,,,,,
,,,,,,,,,,,,,andrea,1,001,female,2022-08-25_15h30.53.466,openIAT,2020.1.0rc3,Win32,60,l,0,1.2689,,,,,,,,1.2689,0,0,19,19,14,1,stimuli/blank.png,Pleasure,a,,,,,,,,
