instr_done_touch.x,instr_done_touch.y,instr_done_touch.leftButton,instr_done_touch.midButton,instr_done_touch.rightButton,instr_done_touch.clicked_name,instruct_pages.thisRepN,instruct_pages.thisTrialN,instruct_pages.thisN,instruct_pages.thisIndex,instruct_pages.ran,pageN,instruct_text,participant,order,session,gender,date,expName,psychopyVersion,OS,frameRate,key_resp.keys,key_resp.corr,key_resp.rt,touch_resp.x,touch_resp.y,touch_resp.leftButton,touch_resp.midButton,touch_resp.rightButton,touch_resp.time,touch_resp.clicked_name,rt,corr,trials.thisRepN,trials.thisTrialN,trials.thisN,trials.thisIndex,trials.ran,stimImage,stimWord,CorrAns,blocks.thisRepN,blocks.thisTrialN,blocks.thisN,blocks.thisIndex,blocks.ran,conds_file,label_left,label_right
0.089854194,-0.389560954,1,0,0,instr_done_button,0,0,0,0,1,1,"You will be presented with words or images to classify into categories using either the 'A' or 'L' key. 
 
Try to go as fast as possible while making as few mistakes as possible. 
",Anzilah,1,001,female,2022-11-03_11h46.22.083,openIAT,2020.1.0rc3,MacIntel,60,,,,,,,,,,,,,,,,,,,,,,,,,,,,
0.04682312,-0.379662069,1,0,0,instr_done_button,0,1,1,1,1,2,"Keep in mind: 
 
1) Labels at the top of the screen indicate which catogory goes with which key. 
 
2) Each word or image has a correct catogory classification 
 
3) Keep your index fingers on the A and L keys to enable a rapid response. 
 
4) The test gives no results if you go slow- please try to go as fast as possible 
",Anzilah,1,001,female,2022-11-03_11h46.22.083,openIAT,2020.1.0rc3,MacIntel,60,,,,,,,,,,,,,,,,,,,,,,,,,,,,
,,,,,,,,,,,,,Anzilah,1,001,female,2022-11-03_11h46.22.083,openIAT,2020.1.0rc3,MacIntel,60,a,1,1.2162,,,,,,,,1.2162,1,0,0,0,0,1,stimuli/blank.png,Good,a,,,,,,,,
,,,,,,,,,,,,,Anzilah,1,001,female,2022-11-03_11h46.22.083,openIAT,2020.1.0rc3,MacIntel,60,a,0,0.349,,,,,,,,0.349,0,0,1,1,1,1,stimuli/blank.png,Bad,l,,,,,,,,
,,,,,,,,,,,,,Anzilah,1,001,female,2022-11-03_11h46.22.083,openIAT,2020.1.0rc3,MacIntel,60,a,1,1.0502,,,,,,,,1.0502,1,0,2,2,8,1,stimuli/blank.png,Joy,a,,,,,,,,
,,,,,,,,,,,,,Anzilah,1,001,female,2022-11-03_11h46.22.083,openIAT,2020.1.0rc3,MacIntel,60,l,1,0.832,,,,,,,,0.832,1,0,3,3,5,1,stimuli/blank.png,Agony,l,,,,,,,,
,,,,,,,,,,,,,Anzilah,1,001,female,2022-11-03_11h46.22.083,openIAT,2020.1.0rc3,MacIntel,60,l,1,0.7366,,,,,,,,0.7366,1,0,4,4,7,1,stimuli/blank.png,Evil,l,,,,,,,,
,,,,,,,,,,,,,Anzilah,1,001,female,2022-11-03_11h46.22.083,openIAT,2020.1.0rc3,MacIntel,60,a,1,0.7158,,,,,,,,0.7158,1,0,5,5,4,1,stimuli/blank.png,Pleasure,a,,,,,,,,
,,,,,,,,,,,,,Anzilah,1,001,female,2022-11-03_11h46.22.083,openIAT,2020.1.0rc3,MacIntel,60,l,1,0.6139,,,,,,,,0.6139,1,0,6,6,9,1,stimuli/blank.png,Nasty,l,,,,,,,,
,,,,,,,,,,,,,Anzilah,1,001,female,2022-11-03_11h46.22.083,openIAT,2020.1.0rc3,MacIntel,60,a,1,0.6321,,,,,,,,0.6321,1,0,7,7,6,1,stimuli/blank.png,Love,a,,,,,,,,
,,,,,,,,,,,,,Anzilah,1,001,female,2022-11-03_11h46.22.083,openIAT,2020.1.0rc3,MacIntel,60,a,1,0.6201,,,,,,,,0.6201,1,0,8,8,2,1,stimuli/blank.png,Happy,a,,,,,,,,
,,,,,,,,,,,,,Anzilah,1,001,female,2022-11-03_11h46.22.083,openIAT,2020.1.0rc3,MacIntel,60,a,0,0.5325,,,,,,,,0.5325,0,0,9,9,3,1,stimuli/blank.png,Hurt,l,,,,,,,,
,,,,,,,,,,,,,Anzilah,1,001,female,2022-11-03_11h46.22.083,openIAT,2020.1.0rc3,MacIntel,60,,,,,,,,,,,,,,,,,,,,,0,0,0,0,1,pos_neg_train.xlsx,"A = 
Positive","L = 
Negative"
,,,,,,,,,,,,,Anzilah,1,001,female,2022-11-03_11h46.22.083,openIAT,2020.1.0rc3,MacIntel,60,l,0,3.696,,,,,,,,3.696,0,0,0,0,7,1,stimuli/white_4.jpg,NaN,a,,,,,,,,
,,,,,,,,,,,,,Anzilah,1,001,female,2022-11-03_11h46.22.083,openIAT,2020.1.0rc3,MacIntel,60,a,0,1.5155,,,,,,,,1.5155,0,0,1,1,4,1,stimuli/black_3.jpg,NaN,l,,,,,,,,
,,,,,,,,,,,,,Anzilah,1,001,female,2022-11-03_11h46.22.083,openIAT,2020.1.0rc3,MacIntel,60,a,1,1.7147,,,,,,,,1.7147,1,0,2,2,1,1,stimuli/white_1.jpg,NaN,a,,,,,,,,
,,,,,,,,,,,,,Anzilah,1,001,female,2022-11-03_11h46.22.083,openIAT,2020.1.0rc3,MacIntel,60,l,1,1.0281,,,,,,,,1.0281,1,0,3,3,6,1,stimuli/black_4.jpg,NaN,l,,,,,,,,
,,,,,,,,,,,,,Anzilah,1,001,female,2022-11-03_11h46.22.083,openIAT,2020.1.0rc3,MacIntel,60,l,1,0.8618,,,,,,,,0.8618,1,0,4,4,8,1,stimuli/black_5.jpg,NaN,l,,,,,,,,
,,,,,,,,,,,,,Anzilah,1,001,female,2022-11-03_11h46.22.083,openIAT,2020.1.0rc3,MacIntel,60,l,0,1.1439,,,,,,,,1.1439,0,0,5,5,9,1,stimuli/white_5.jpg,NaN,a,,,,,,,,
,,,,,,,,,,,,,Anzilah,1,001,female,2022-11-03_11h46.22.083,openIAT,2020.1.0rc3,MacIntel,60,l,1,0.9079,,,,,,,,0.9079,1,0,6,6,2,1,stimuli/black_2.jpg,NaN,l,,,,,,,,
,,,,,,,,,,,,,Anzilah,1,001,female,2022-11-03_11h46.22.083,openIAT,2020.1.0rc3,MacIntel,60,l,1,0.8156,,,,,,,,0.8156,1,0,7,7,0,1,stimuli/black_1.jpg,NaN,l,,,,,,,,
,,,,,,,,,,,,,Anzilah,1,001,female,2022-11-03_11h46.22.083,openIAT,2020.1.0rc3,MacIntel,60,a,1,1.3445,,,,,,,,1.3445,1,0,8,8,3,1,stimuli/white_2.jpg,NaN,a,,,,,,,,
,,,,,,,,,,,,,Anzilah,1,001,female,2022-11-03_11h46.22.083,openIAT,2020.1.0rc3,MacIntel,60,a,1,1.1273,,,,,,,,1.1273,1,0,9,9,5,1,stimuli/white_3.jpg,NaN,a,,,,,,,,
,,,,,,,,,,,,,Anzilah,1,001,female,2022-11-03_11h46.22.083,openIAT,2020.1.0rc3,MacIntel,60,,,,,,,,,,,,,,,,,,,,,0,1,1,1,1,cong_train.xlsx,"A = 
White","L = 
Black"
,,,,,,,,,,,,,Anzilah,1,001,female,2022-11-03_11h46.22.083,openIAT,2020.1.0rc3,MacIntel,60,l,1,1.807,,,,,,,,1.807,1,0,0,0,0,1,stimuli/black_1.jpg,NaN,l,,,,,,,,
,,,,,,,,,,,,,Anzilah,1,001,female,2022-11-03_11h46.22.083,openIAT,2020.1.0rc3,MacIntel,60,a,1,4.0831,,,,,,,,4.0831,1,0,1,1,10,1,stimuli/blank.png,Good,a,,,,,,,,
,,,,,,,,,,,,,Anzilah,1,001,female,2022-11-03_11h46.22.083,openIAT,2020.1.0rc3,MacIntel,60,l,1,1.0913,,,,,,,,1.0913,1,0,2,2,11,1,stimuli/blank.png,Bad,l,,,,,,,,
,,,,,,,,,,,,,Anzilah,1,001,female,2022-11-03_11h46.22.083,openIAT,2020.1.0rc3,MacIntel,60,a,1,0.9496,,,,,,,,0.9496,1,0,3,3,12,1,stimuli/blank.png,Happy,a,,,,,,,,
,,,,,,,,,,,,,Anzilah,1,001,female,2022-11-03_11h46.22.083,openIAT,2020.1.0rc3,MacIntel,60,l,1,1.928,,,,,,,,1.928,1,0,4,4,2,1,stimuli/black_2.jpg,NaN,l,,,,,,,,
,,,,,,,,,,,,,Anzilah,1,001,female,2022-11-03_11h46.22.083,openIAT,2020.1.0rc3,MacIntel,60,a,1,1.0402,,,,,,,,1.0402,1,0,5,5,16,1,stimuli/blank.png,Love,a,,,,,,,,
,,,,,,,,,,,,,Anzilah,1,001,female,2022-11-03_11h46.22.083,openIAT,2020.1.0rc3,MacIntel,60,l,1,0.9643,,,,,,,,0.9643,1,0,6,6,19,1,stimuli/blank.png,Nasty,l,,,,,,,,
,,,,,,,,,,,,,Anzilah,1,001,female,2022-11-03_11h46.22.083,openIAT,2020.1.0rc3,MacIntel,60,l,1,1.0257,,,,,,,,1.0257,1,0,7,7,6,1,stimuli/black_4.jpg,NaN,l,,,,,,,,
,,,,,,,,,,,,,Anzilah,1,001,female,2022-11-03_11h46.22.083,openIAT,2020.1.0rc3,MacIntel,60,a,1,1.2774,,,,,,,,1.2774,1,0,8,8,14,1,stimuli/blank.png,Pleasure,a,,,,,,,,
,,,,,,,,,,,,,Anzilah,1,001,female,2022-11-03_11h46.22.083,openIAT,2020.1.0rc3,MacIntel,60,l,1,0.6202,,,,,,,,0.6202,1,0,9,9,4,1,stimuli/black_3.jpg,NaN,l,,,,,,,,
,,,,,,,,,,,,,Anzilah,1,001,female,2022-11-03_11h46.22.083,openIAT,2020.1.0rc3,MacIntel,60,a,1,0.92,,,,,,,,0.92,1,0,10,10,5,1,stimuli/white_3.jpg,NaN,a,,,,,,,,
,,,,,,,,,,,,,Anzilah,1,001,female,2022-11-03_11h46.22.083,openIAT,2020.1.0rc3,MacIntel,60,l,1,1.1453,,,,,,,,1.1453,1,0,11,11,13,1,stimuli/blank.png,Hurt,l,,,,,,,,
,,,,,,,,,,,,,Anzilah,1,001,female,2022-11-03_11h46.22.083,openIAT,2020.1.0rc3,MacIntel,60,l,1,0.9984,,,,,,,,0.9984,1,0,12,12,8,1,stimuli/black_5.jpg,NaN,l,,,,,,,,
,,,,,,,,,,,,,Anzilah,1,001,female,2022-11-03_11h46.22.083,openIAT,2020.1.0rc3,MacIntel,60,l,1,1.7254,,,,,,,,1.7254,1,0,13,13,15,1,stimuli/blank.png,Agony,l,,,,,,,,
,,,,,,,,,,,,,Anzilah,1,001,female,2022-11-03_11h46.22.083,openIAT,2020.1.0rc3,MacIntel,60,a,1,0.9646,,,,,,,,0.9646,1,0,14,14,18,1,stimuli/blank.png,Joy,a,,,,,,,,
,,,,,,,,,,,,,Anzilah,1,001,female,2022-11-03_11h46.22.083,openIAT,2020.1.0rc3,MacIntel,60,a,1,1.0526,,,,,,,,1.0526,1,0,15,15,9,1,stimuli/white_5.jpg,NaN,a,,,,,,,,
,,,,,,,,,,,,,Anzilah,1,001,female,2022-11-03_11h46.22.083,openIAT,2020.1.0rc3,MacIntel,60,a,1,0.8391,,,,,,,,0.8391,1,0,16,16,1,1,stimuli/white_1.jpg,NaN,a,,,,,,,,
,,,,,,,,,,,,,Anzilah,1,001,female,2022-11-03_11h46.22.083,openIAT,2020.1.0rc3,MacIntel,60,a,1,0.7675,,,,,,,,0.7675,1,0,17,17,7,1,stimuli/white_4.jpg,NaN,a,,,,,,,,
,,,,,,,,,,,,,Anzilah,1,001,female,2022-11-03_11h46.22.083,openIAT,2020.1.0rc3,MacIntel,60,l,1,0.7775,,,,,,,,0.7775,1,0,18,18,17,1,stimuli/blank.png,Evil,l,,,,,,,,
,,,,,,,,,,,,,Anzilah,1,001,female,2022-11-03_11h46.22.083,openIAT,2020.1.0rc3,MacIntel,60,a,1,1.0539,,,,,,,,1.0539,1,0,19,19,3,1,stimuli/white_2.jpg,NaN,a,,,,,,,,
,,,,,,,,,,,,,Anzilah,1,001,female,2022-11-03_11h46.22.083,openIAT,2020.1.0rc3,MacIntel,60,,,,,,,,,,,,,,,,,,,,,0,2,2,2,1,cong_test.xlsx,"A = 
White or 
Positive","L = 
Black or 
Negative"
,,,,,,,,,,,,,Anzilah,1,001,female,2022-11-03_11h46.22.083,openIAT,2020.1.0rc3,MacIntel,60,l,1,1.1127,,,,,,,,1.1127,1,0,0,0,5,1,stimuli/white_3.jpg,,l,,,,,,,,
,,,,,,,,,,,,,Anzilah,1,001,female,2022-11-03_11h46.22.083,openIAT,2020.1.0rc3,MacIntel,60,l,1,0.7859,,,,,,,,0.7859,1,0,1,1,9,1,stimuli/white_5.jpg,,l,,,,,,,,
,,,,,,,,,,,,,Anzilah,1,001,female,2022-11-03_11h46.22.083,openIAT,2020.1.0rc3,MacIntel,60,a,1,0.8367,,,,,,,,0.8367,1,0,2,2,6,1,stimuli/black_4.jpg,,a,,,,,,,,
,,,,,,,,,,,,,Anzilah,1,001,female,2022-11-03_11h46.22.083,openIAT,2020.1.0rc3,MacIntel,60,a,1,0.7531,,,,,,,,0.7531,1,0,3,3,4,1,stimuli/black_3.jpg,,a,,,,,,,,
,,,,,,,,,,,,,Anzilah,1,001,female,2022-11-03_11h46.22.083,openIAT,2020.1.0rc3,MacIntel,60,l,1,0.6138,,,,,,,,0.6138,1,0,4,4,1,1,stimuli/white_1.jpg,,l,,,,,,,,
,,,,,,,,,,,,,Anzilah,1,001,female,2022-11-03_11h46.22.083,openIAT,2020.1.0rc3,MacIntel,60,a,1,0.7804,,,,,,,,0.7804,1,0,5,5,2,1,stimuli/black_2.jpg,,a,,,,,,,,
,,,,,,,,,,,,,Anzilah,1,001,female,2022-11-03_11h46.22.083,openIAT,2020.1.0rc3,MacIntel,60,l,1,0.6874,,,,,,,,0.6874,1,0,6,6,3,1,stimuli/white_2.jpg,,l,,,,,,,,
,,,,,,,,,,,,,Anzilah,1,001,female,2022-11-03_11h46.22.083,openIAT,2020.1.0rc3,MacIntel,60,l,1,0.7424,,,,,,,,0.7424,1,0,7,7,7,1,stimuli/white_4.jpg,,l,,,,,,,,
,,,,,,,,,,,,,Anzilah,1,001,female,2022-11-03_11h46.22.083,openIAT,2020.1.0rc3,MacIntel,60,a,1,0.7377,,,,,,,,0.7377,1,0,8,8,0,1,stimuli/black_1.jpg,,a,,,,,,,,
,,,,,,,,,,,,,Anzilah,1,001,female,2022-11-03_11h46.22.083,openIAT,2020.1.0rc3,MacIntel,60,a,1,0.6979,,,,,,,,0.6979,1,0,9,9,8,1,stimuli/black_5.jpg,,a,,,,,,,,
,,,,,,,,,,,,,Anzilah,1,001,female,2022-11-03_11h46.22.083,openIAT,2020.1.0rc3,MacIntel,60,,,,,,,,,,,,,,,,,,,,,0,3,3,3,1,incong_train.xlsx,"A = 
Black","L = 
White"
,,,,,,,,,,,,,Anzilah,1,001,female,2022-11-03_11h46.22.083,openIAT,2020.1.0rc3,MacIntel,60,a,1,0.7664,,,,,,,,0.7664,1,0,0,0,16,1,stimuli/blank.png,Love,a,,,,,,,,
,,,,,,,,,,,,,Anzilah,1,001,female,2022-11-03_11h46.22.083,openIAT,2020.1.0rc3,MacIntel,60,l,1,1.002,,,,,,,,1.002,1,0,1,1,13,1,stimuli/blank.png,Hurt,l,,,,,,,,
,,,,,,,,,,,,,Anzilah,1,001,female,2022-11-03_11h46.22.083,openIAT,2020.1.0rc3,MacIntel,60,a,1,1.2718,,,,,,,,1.2718,1,0,2,2,6,1,stimuli/black_4.jpg,,a,,,,,,,,
,,,,,,,,,,,,,Anzilah,1,001,female,2022-11-03_11h46.22.083,openIAT,2020.1.0rc3,MacIntel,60,a,1,0.7863,,,,,,,,0.7863,1,0,3,3,2,1,stimuli/black_2.jpg,,a,,,,,,,,
,,,,,,,,,,,,,Anzilah,1,001,female,2022-11-03_11h46.22.083,openIAT,2020.1.0rc3,MacIntel,60,a,1,0.5846,,,,,,,,0.5846,1,0,4,4,4,1,stimuli/black_3.jpg,,a,,,,,,,,
,,,,,,,,,,,,,Anzilah,1,001,female,2022-11-03_11h46.22.083,openIAT,2020.1.0rc3,MacIntel,60,a,1,0.6003,,,,,,,,0.6003,1,0,5,5,8,1,stimuli/black_5.jpg,,a,,,,,,,,
,,,,,,,,,,,,,Anzilah,1,001,female,2022-11-03_11h46.22.083,openIAT,2020.1.0rc3,MacIntel,60,a,1,0.585,,,,,,,,0.585,1,0,6,6,0,1,stimuli/black_1.jpg,,a,,,,,,,,
,,,,,,,,,,,,,Anzilah,1,001,female,2022-11-03_11h46.22.083,openIAT,2020.1.0rc3,MacIntel,60,l,1,0.7429,,,,,,,,0.7429,1,0,7,7,3,1,stimuli/white_2.jpg,,l,,,,,,,,
,,,,,,,,,,,,,Anzilah,1,001,female,2022-11-03_11h46.22.083,openIAT,2020.1.0rc3,MacIntel,60,a,1,0.6658,,,,,,,,0.6658,1,0,8,8,14,1,stimuli/blank.png,Pleasure,a,,,,,,,,
,,,,,,,,,,,,,Anzilah,1,001,female,2022-11-03_11h46.22.083,openIAT,2020.1.0rc3,MacIntel,60,l,1,0.9099,,,,,,,,0.9099,1,0,9,9,5,1,stimuli/white_3.jpg,,l,,,,,,,,
,,,,,,,,,,,,,Anzilah,1,001,female,2022-11-03_11h46.22.083,openIAT,2020.1.0rc3,MacIntel,60,l,1,0.724,,,,,,,,0.724,1,0,10,10,1,1,stimuli/white_1.jpg,,l,,,,,,,,
,,,,,,,,,,,,,Anzilah,1,001,female,2022-11-03_11h46.22.083,openIAT,2020.1.0rc3,MacIntel,60,a,0,0.9266,,,,,,,,0.9266,0,0,11,11,11,1,stimuli/blank.png,Bad,l,,,,,,,,
,,,,,,,,,,,,,Anzilah,1,001,female,2022-11-03_11h46.22.083,openIAT,2020.1.0rc3,MacIntel,60,a,1,3.4814,,,,,,,,3.4814,1,0,12,12,12,1,stimuli/blank.png,Happy,a,,,,,,,,
,,,,,,,,,,,,,Anzilah,1,001,female,2022-11-03_11h46.22.083,openIAT,2020.1.0rc3,MacIntel,60,a,1,0.7365,,,,,,,,0.7365,1,0,13,13,18,1,stimuli/blank.png,Joy,a,,,,,,,,
,,,,,,,,,,,,,Anzilah,1,001,female,2022-11-03_11h46.22.083,openIAT,2020.1.0rc3,MacIntel,60,l,1,0.6538,,,,,,,,0.6538,1,0,14,14,19,1,stimuli/blank.png,Nasty,l,,,,,,,,
,,,,,,,,,,,,,Anzilah,1,001,female,2022-11-03_11h46.22.083,openIAT,2020.1.0rc3,MacIntel,60,l,1,1.1117,,,,,,,,1.1117,1,0,15,15,17,1,stimuli/blank.png,Evil,l,,,,,,,,
,,,,,,,,,,,,,Anzilah,1,001,female,2022-11-03_11h46.22.083,openIAT,2020.1.0rc3,MacIntel,60,l,1,0.8685,,,,,,,,0.8685,1,0,16,16,9,1,stimuli/white_5.jpg,,l,,,,,,,,
,,,,,,,,,,,,,Anzilah,1,001,female,2022-11-03_11h46.22.083,openIAT,2020.1.0rc3,MacIntel,60,l,1,0.7039,,,,,,,,0.7039,1,0,17,17,7,1,stimuli/white_4.jpg,,l,,,,,,,,
,,,,,,,,,,,,,Anzilah,1,001,female,2022-11-03_11h46.22.083,openIAT,2020.1.0rc3,MacIntel,60,a,1,0.7248,,,,,,,,0.7248,1,0,18,18,10,1,stimuli/blank.png,Good,a,,,,,,,,
,,,,,,,,,,,,,Anzilah,1,001,female,2022-11-03_11h46.22.083,openIAT,2020.1.0rc3,MacIntel,60,l,1,0.8679,,,,,,,,0.8679,1,0,19,19,15,1,stimuli/blank.png,Agony,l,,,,,,,,
