instr_done_touch.x,instr_done_touch.y,instr_done_touch.leftButton,instr_done_touch.midButton,instr_done_touch.rightButton,instr_done_touch.clicked_name,instruct_pages.thisRepN,instruct_pages.thisTrialN,instruct_pages.thisN,instruct_pages.thisIndex,instruct_pages.ran,pageN,instruct_text,participant,order,session,gender,date,expName,psychopyVersion,OS,frameRate,key_resp.keys,key_resp.corr,key_resp.rt,touch_resp.x,touch_resp.y,touch_resp.leftButton,touch_resp.midButton,touch_resp.rightButton,touch_resp.time,touch_resp.clicked_name,rt,corr,trials.thisRepN,trials.thisTrialN,trials.thisN,trials.thisIndex,trials.ran,stimImage,stimWord,CorrAns,blocks.thisRepN,blocks.thisTrialN,blocks.thisN,blocks.thisIndex,blocks.ran,conds_file,label_left,label_right
0.03937934,-0.383272569,1,0,0,instr_done_button,0,0,0,0,1,1,"You will be presented with words or images to classify into categories using either the 'A' or 'L' key. 
 
Try to go as fast as possible while making as few mistakes as possible. 
",bumblez,1,001,male,2024-03-30_20h19.21.162,openIAT,2020.1.0rc3,MacIntel,60,,,,,,,,,,,,,,,,,,,,,,,,,,,,
0.03937934,-0.383272569,1,0,0,instr_done_button,0,1,1,1,1,2,"Keep in mind: 
 
1) Labels at the top of the screen indicate which catogory goes with which key. 
 
2) Each word or image has a correct catogory classification 
 
3) Keep your index fingers on the A and L keys to enable a rapid response. 
 
4) The test gives no results if you go slow- please try to go as fast as possible 
",bumblez,1,001,male,2024-03-30_20h19.21.162,openIAT,2020.1.0rc3,MacIntel,60,,,,,,,,,,,,,,,,,,,,,,,,,,,,
,,,,,,,,,,,,,bumblez,1,001,male,2024-03-30_20h19.21.162,openIAT,2020.1.0rc3,MacIntel,60,a,1,1.442,,,,,,,,1.442,1,0,0,0,8,1,stimuli/blank.png,Joy,a,,,,,,,,
,,,,,,,,,,,,,bumblez,1,001,male,2024-03-30_20h19.21.162,openIAT,2020.1.0rc3,MacIntel,60,a,1,1.134,,,,,,,,1.134,1,0,1,1,2,1,stimuli/blank.png,Happy,a,,,,,,,,
,,,,,,,,,,,,,bumblez,1,001,male,2024-03-30_20h19.21.162,openIAT,2020.1.0rc3,MacIntel,60,l,1,0.773,,,,,,,,0.773,1,0,2,2,1,1,stimuli/blank.png,Bad,l,,,,,,,,
,,,,,,,,,,,,,bumblez,1,001,male,2024-03-30_20h19.21.162,openIAT,2020.1.0rc3,MacIntel,60,l,1,1.112,,,,,,,,1.112,1,0,3,3,5,1,stimuli/blank.png,Agony,l,,,,,,,,
,,,,,,,,,,,,,bumblez,1,001,male,2024-03-30_20h19.21.162,openIAT,2020.1.0rc3,MacIntel,60,l,1,0.693,,,,,,,,0.693,1,0,4,4,3,1,stimuli/blank.png,Hurt,l,,,,,,,,
,,,,,,,,,,,,,bumblez,1,001,male,2024-03-30_20h19.21.162,openIAT,2020.1.0rc3,MacIntel,60,a,1,0.776,,,,,,,,0.776,1,0,5,5,4,1,stimuli/blank.png,Pleasure,a,,,,,,,,
,,,,,,,,,,,,,bumblez,1,001,male,2024-03-30_20h19.21.162,openIAT,2020.1.0rc3,MacIntel,60,a,1,0.693,,,,,,,,0.693,1,0,6,6,0,1,stimuli/blank.png,Good,a,,,,,,,,
,,,,,,,,,,,,,bumblez,1,001,male,2024-03-30_20h19.21.162,openIAT,2020.1.0rc3,MacIntel,60,a,1,1.034,,,,,,,,1.034,1,0,7,7,6,1,stimuli/blank.png,Love,a,,,,,,,,
,,,,,,,,,,,,,bumblez,1,001,male,2024-03-30_20h19.21.162,openIAT,2020.1.0rc3,MacIntel,60,l,1,0.73,,,,,,,,0.73,1,0,8,8,7,1,stimuli/blank.png,Evil,l,,,,,,,,
,,,,,,,,,,,,,bumblez,1,001,male,2024-03-30_20h19.21.162,openIAT,2020.1.0rc3,MacIntel,60,l,1,0.747,,,,,,,,0.747,1,0,9,9,9,1,stimuli/blank.png,Nasty,l,,,,,,,,
,,,,,,,,,,,,,bumblez,1,001,male,2024-03-30_20h19.21.162,openIAT,2020.1.0rc3,MacIntel,60,,,,,,,,,,,,,,,,,,,,,0,0,0,0,1,pos_neg_train.xlsx,"A = 
Positive","L = 
Negative"
,,,,,,,,,,,,,bumblez,1,001,male,2024-03-30_20h19.21.162,openIAT,2020.1.0rc3,MacIntel,60,l,1,7.927,,,,,,,,7.927,1,0,0,0,2,1,stimuli/black_2.jpg,NaN,l,,,,,,,,
,,,,,,,,,,,,,bumblez,1,001,male,2024-03-30_20h19.21.162,openIAT,2020.1.0rc3,MacIntel,60,l,1,1.21,,,,,,,,1.21,1,0,1,1,4,1,stimuli/black_3.jpg,NaN,l,,,,,,,,
,,,,,,,,,,,,,bumblez,1,001,male,2024-03-30_20h19.21.162,openIAT,2020.1.0rc3,MacIntel,60,a,1,1.009,,,,,,,,1.009,1,0,2,2,5,1,stimuli/white_3.jpg,NaN,a,,,,,,,,
,,,,,,,,,,,,,bumblez,1,001,male,2024-03-30_20h19.21.162,openIAT,2020.1.0rc3,MacIntel,60,l,1,0.817,,,,,,,,0.817,1,0,3,3,6,1,stimuli/black_4.jpg,NaN,l,,,,,,,,
,,,,,,,,,,,,,bumblez,1,001,male,2024-03-30_20h19.21.162,openIAT,2020.1.0rc3,MacIntel,60,l,1,0.728,,,,,,,,0.728,1,0,4,4,8,1,stimuli/black_5.jpg,NaN,l,,,,,,,,
,,,,,,,,,,,,,bumblez,1,001,male,2024-03-30_20h19.21.162,openIAT,2020.1.0rc3,MacIntel,60,l,1,0.757,,,,,,,,0.757,1,0,5,5,0,1,stimuli/black_1.jpg,NaN,l,,,,,,,,
,,,,,,,,,,,,,bumblez,1,001,male,2024-03-30_20h19.21.162,openIAT,2020.1.0rc3,MacIntel,60,a,1,0.817,,,,,,,,0.817,1,0,6,6,1,1,stimuli/white_1.jpg,NaN,a,,,,,,,,
,,,,,,,,,,,,,bumblez,1,001,male,2024-03-30_20h19.21.162,openIAT,2020.1.0rc3,MacIntel,60,a,1,0.842,,,,,,,,0.842,1,0,7,7,7,1,stimuli/white_4.jpg,NaN,a,,,,,,,,
,,,,,,,,,,,,,bumblez,1,001,male,2024-03-30_20h19.21.162,openIAT,2020.1.0rc3,MacIntel,60,a,1,1.675,,,,,,,,1.675,1,0,8,8,9,1,stimuli/white_5.jpg,NaN,a,,,,,,,,
,,,,,,,,,,,,,bumblez,1,001,male,2024-03-30_20h19.21.162,openIAT,2020.1.0rc3,MacIntel,60,a,1,0.683,,,,,,,,0.683,1,0,9,9,3,1,stimuli/white_2.jpg,NaN,a,,,,,,,,
,,,,,,,,,,,,,bumblez,1,001,male,2024-03-30_20h19.21.162,openIAT,2020.1.0rc3,MacIntel,60,,,,,,,,,,,,,,,,,,,,,0,1,1,1,1,cong_train.xlsx,"A = 
White","L = 
Black"
,,,,,,,,,,,,,bumblez,1,001,male,2024-03-30_20h19.21.162,openIAT,2020.1.0rc3,MacIntel,60,a,1,1.309,,,,,,,,1.309,1,0,0,0,14,1,stimuli/blank.png,Pleasure,a,,,,,,,,
,,,,,,,,,,,,,bumblez,1,001,male,2024-03-30_20h19.21.162,openIAT,2020.1.0rc3,MacIntel,60,a,1,0.648,,,,,,,,0.648,1,0,1,1,10,1,stimuli/blank.png,Good,a,,,,,,,,
,,,,,,,,,,,,,bumblez,1,001,male,2024-03-30_20h19.21.162,openIAT,2020.1.0rc3,MacIntel,60,a,1,0.678,,,,,,,,0.678,1,0,2,2,16,1,stimuli/blank.png,Love,a,,,,,,,,
,,,,,,,,,,,,,bumblez,1,001,male,2024-03-30_20h19.21.162,openIAT,2020.1.0rc3,MacIntel,60,l,1,0.69,,,,,,,,0.69,1,0,3,3,17,1,stimuli/blank.png,Evil,l,,,,,,,,
,,,,,,,,,,,,,bumblez,1,001,male,2024-03-30_20h19.21.162,openIAT,2020.1.0rc3,MacIntel,60,l,1,3.975,,,,,,,,3.975,1,0,4,4,8,1,stimuli/black_5.jpg,NaN,l,,,,,,,,
,,,,,,,,,,,,,bumblez,1,001,male,2024-03-30_20h19.21.162,openIAT,2020.1.0rc3,MacIntel,60,l,1,1.06,,,,,,,,1.06,1,0,5,5,19,1,stimuli/blank.png,Nasty,l,,,,,,,,
,,,,,,,,,,,,,bumblez,1,001,male,2024-03-30_20h19.21.162,openIAT,2020.1.0rc3,MacIntel,60,l,1,0.64,,,,,,,,0.64,1,0,6,6,6,1,stimuli/black_4.jpg,NaN,l,,,,,,,,
,,,,,,,,,,,,,bumblez,1,001,male,2024-03-30_20h19.21.162,openIAT,2020.1.0rc3,MacIntel,60,a,1,0.776,,,,,,,,0.776,1,0,7,7,1,1,stimuli/white_1.jpg,NaN,a,,,,,,,,
,,,,,,,,,,,,,bumblez,1,001,male,2024-03-30_20h19.21.162,openIAT,2020.1.0rc3,MacIntel,60,l,1,1.15,,,,,,,,1.15,1,0,8,8,13,1,stimuli/blank.png,Hurt,l,,,,,,,,
,,,,,,,,,,,,,bumblez,1,001,male,2024-03-30_20h19.21.162,openIAT,2020.1.0rc3,MacIntel,60,l,1,0.907,,,,,,,,0.907,1,0,9,9,4,1,stimuli/black_3.jpg,NaN,l,,,,,,,,
,,,,,,,,,,,,,bumblez,1,001,male,2024-03-30_20h19.21.162,openIAT,2020.1.0rc3,MacIntel,60,a,1,0.615,,,,,,,,0.615,1,0,10,10,5,1,stimuli/white_3.jpg,NaN,a,,,,,,,,
,,,,,,,,,,,,,bumblez,1,001,male,2024-03-30_20h19.21.162,openIAT,2020.1.0rc3,MacIntel,60,a,1,0.924,,,,,,,,0.924,1,0,11,11,18,1,stimuli/blank.png,Joy,a,,,,,,,,
,,,,,,,,,,,,,bumblez,1,001,male,2024-03-30_20h19.21.162,openIAT,2020.1.0rc3,MacIntel,60,a,1,2.275,,,,,,,,2.275,1,0,12,12,7,1,stimuli/white_4.jpg,NaN,a,,,,,,,,
,,,,,,,,,,,,,bumblez,1,001,male,2024-03-30_20h19.21.162,openIAT,2020.1.0rc3,MacIntel,60,l,1,0.962,,,,,,,,0.962,1,0,13,13,2,1,stimuli/black_2.jpg,NaN,l,,,,,,,,
,,,,,,,,,,,,,bumblez,1,001,male,2024-03-30_20h19.21.162,openIAT,2020.1.0rc3,MacIntel,60,a,1,0.758,,,,,,,,0.758,1,0,14,14,9,1,stimuli/white_5.jpg,NaN,a,,,,,,,,
,,,,,,,,,,,,,bumblez,1,001,male,2024-03-30_20h19.21.162,openIAT,2020.1.0rc3,MacIntel,60,a,1,0.708,,,,,,,,0.708,1,0,15,15,12,1,stimuli/blank.png,Happy,a,,,,,,,,
,,,,,,,,,,,,,bumblez,1,001,male,2024-03-30_20h19.21.162,openIAT,2020.1.0rc3,MacIntel,60,a,1,0.707,,,,,,,,0.707,1,0,16,16,3,1,stimuli/white_2.jpg,NaN,a,,,,,,,,
,,,,,,,,,,,,,bumblez,1,001,male,2024-03-30_20h19.21.162,openIAT,2020.1.0rc3,MacIntel,60,a,0,0.812,,,,,,,,0.812,0,0,17,17,15,1,stimuli/blank.png,Agony,l,,,,,,,,
,,,,,,,,,,,,,bumblez,1,001,male,2024-03-30_20h19.21.162,openIAT,2020.1.0rc3,MacIntel,60,l,1,1.156,,,,,,,,1.156,1,0,18,18,0,1,stimuli/black_1.jpg,NaN,l,,,,,,,,
,,,,,,,,,,,,,bumblez,1,001,male,2024-03-30_20h19.21.162,openIAT,2020.1.0rc3,MacIntel,60,l,1,1,,,,,,,,1,1,0,19,19,11,1,stimuli/blank.png,Bad,l,,,,,,,,
,,,,,,,,,,,,,bumblez,1,001,male,2024-03-30_20h19.21.162,openIAT,2020.1.0rc3,MacIntel,60,,,,,,,,,,,,,,,,,,,,,0,2,2,2,1,cong_test.xlsx,"A = 
White or 
Positive","L = 
Black or 
Negative"
,,,,,,,,,,,,,bumblez,1,001,male,2024-03-30_20h19.21.162,openIAT,2020.1.0rc3,MacIntel,60,a,1,1.626,,,,,,,,1.626,1,0,0,0,0,1,stimuli/black_1.jpg,,a,,,,,,,,
,,,,,,,,,,,,,bumblez,1,001,male,2024-03-30_20h19.21.162,openIAT,2020.1.0rc3,MacIntel,60,a,1,0.665,,,,,,,,0.665,1,0,1,1,8,1,stimuli/black_5.jpg,,a,,,,,,,,
,,,,,,,,,,,,,bumblez,1,001,male,2024-03-30_20h19.21.162,openIAT,2020.1.0rc3,MacIntel,60,a,1,0.646,,,,,,,,0.646,1,0,2,2,4,1,stimuli/black_3.jpg,,a,,,,,,,,
,,,,,,,,,,,,,bumblez,1,001,male,2024-03-30_20h19.21.162,openIAT,2020.1.0rc3,MacIntel,60,l,1,0.75,,,,,,,,0.75,1,0,3,3,1,1,stimuli/white_1.jpg,,l,,,,,,,,
,,,,,,,,,,,,,bumblez,1,001,male,2024-03-30_20h19.21.162,openIAT,2020.1.0rc3,MacIntel,60,a,1,0.764,,,,,,,,0.764,1,0,4,4,6,1,stimuli/black_4.jpg,,a,,,,,,,,
,,,,,,,,,,,,,bumblez,1,001,male,2024-03-30_20h19.21.162,openIAT,2020.1.0rc3,MacIntel,60,l,1,1.319,,,,,,,,1.319,1,0,5,5,9,1,stimuli/white_5.jpg,,l,,,,,,,,
,,,,,,,,,,,,,bumblez,1,001,male,2024-03-30_20h19.21.162,openIAT,2020.1.0rc3,MacIntel,60,l,1,0.885,,,,,,,,0.885,1,0,6,6,7,1,stimuli/white_4.jpg,,l,,,,,,,,
,,,,,,,,,,,,,bumblez,1,001,male,2024-03-30_20h19.21.162,openIAT,2020.1.0rc3,MacIntel,60,l,1,0.714,,,,,,,,0.714,1,0,7,7,5,1,stimuli/white_3.jpg,,l,,,,,,,,
,,,,,,,,,,,,,bumblez,1,001,male,2024-03-30_20h19.21.162,openIAT,2020.1.0rc3,MacIntel,60,l,1,0.642,,,,,,,,0.642,1,0,8,8,3,1,stimuli/white_2.jpg,,l,,,,,,,,
,,,,,,,,,,,,,bumblez,1,001,male,2024-03-30_20h19.21.162,openIAT,2020.1.0rc3,MacIntel,60,a,1,0.714,,,,,,,,0.714,1,0,9,9,2,1,stimuli/black_2.jpg,,a,,,,,,,,
,,,,,,,,,,,,,bumblez,1,001,male,2024-03-30_20h19.21.162,openIAT,2020.1.0rc3,MacIntel,60,,,,,,,,,,,,,,,,,,,,,0,3,3,3,1,incong_train.xlsx,"A = 
Black","L = 
White"
,,,,,,,,,,,,,bumblez,1,001,male,2024-03-30_20h19.21.162,openIAT,2020.1.0rc3,MacIntel,60,a,1,1.964,,,,,,,,1.964,1,0,0,0,16,1,stimuli/blank.png,Love,a,,,,,,,,
,,,,,,,,,,,,,bumblez,1,001,male,2024-03-30_20h19.21.162,openIAT,2020.1.0rc3,MacIntel,60,l,1,1.847,,,,,,,,1.847,1,0,1,1,3,1,stimuli/white_2.jpg,,l,,,,,,,,
,,,,,,,,,,,,,bumblez,1,001,male,2024-03-30_20h19.21.162,openIAT,2020.1.0rc3,MacIntel,60,l,1,0.91,,,,,,,,0.91,1,0,2,2,7,1,stimuli/white_4.jpg,,l,,,,,,,,
,,,,,,,,,,,,,bumblez,1,001,male,2024-03-30_20h19.21.162,openIAT,2020.1.0rc3,MacIntel,60,a,1,0.484,,,,,,,,0.484,1,0,3,3,6,1,stimuli/black_4.jpg,,a,,,,,,,,
,,,,,,,,,,,,,bumblez,1,001,male,2024-03-30_20h19.21.162,openIAT,2020.1.0rc3,MacIntel,60,l,1,1.292,,,,,,,,1.292,1,0,4,4,13,1,stimuli/blank.png,Hurt,l,,,,,,,,
,,,,,,,,,,,,,bumblez,1,001,male,2024-03-30_20h19.21.162,openIAT,2020.1.0rc3,MacIntel,60,l,1,0.716,,,,,,,,0.716,1,0,5,5,19,1,stimuli/blank.png,Nasty,l,,,,,,,,
,,,,,,,,,,,,,bumblez,1,001,male,2024-03-30_20h19.21.162,openIAT,2020.1.0rc3,MacIntel,60,a,1,1.574,,,,,,,,1.574,1,0,6,6,14,1,stimuli/blank.png,Pleasure,a,,,,,,,,
,,,,,,,,,,,,,bumblez,1,001,male,2024-03-30_20h19.21.162,openIAT,2020.1.0rc3,MacIntel,60,l,1,0.757,,,,,,,,0.757,1,0,7,7,15,1,stimuli/blank.png,Agony,l,,,,,,,,
,,,,,,,,,,,,,bumblez,1,001,male,2024-03-30_20h19.21.162,openIAT,2020.1.0rc3,MacIntel,60,a,1,0.825,,,,,,,,0.825,1,0,8,8,2,1,stimuli/black_2.jpg,,a,,,,,,,,
,,,,,,,,,,,,,bumblez,1,001,male,2024-03-30_20h19.21.162,openIAT,2020.1.0rc3,MacIntel,60,a,1,0.543,,,,,,,,0.543,1,0,9,9,8,1,stimuli/black_5.jpg,,a,,,,,,,,
,,,,,,,,,,,,,bumblez,1,001,male,2024-03-30_20h19.21.162,openIAT,2020.1.0rc3,MacIntel,60,a,1,0.818,,,,,,,,0.818,1,0,10,10,12,1,stimuli/blank.png,Happy,a,,,,,,,,
,,,,,,,,,,,,,bumblez,1,001,male,2024-03-30_20h19.21.162,openIAT,2020.1.0rc3,MacIntel,60,l,1,1.442,,,,,,,,1.442,1,0,11,11,9,1,stimuli/white_5.jpg,,l,,,,,,,,
,,,,,,,,,,,,,bumblez,1,001,male,2024-03-30_20h19.21.162,openIAT,2020.1.0rc3,MacIntel,60,a,1,1.346,,,,,,,,1.346,1,0,12,12,0,1,stimuli/black_1.jpg,,a,,,,,,,,
,,,,,,,,,,,,,bumblez,1,001,male,2024-03-30_20h19.21.162,openIAT,2020.1.0rc3,MacIntel,60,l,1,0.751,,,,,,,,0.751,1,0,13,13,11,1,stimuli/blank.png,Bad,l,,,,,,,,
,,,,,,,,,,,,,bumblez,1,001,male,2024-03-30_20h19.21.162,openIAT,2020.1.0rc3,MacIntel,60,l,1,1.042,,,,,,,,1.042,1,0,14,14,5,1,stimuli/white_3.jpg,,l,,,,,,,,
,,,,,,,,,,,,,bumblez,1,001,male,2024-03-30_20h19.21.162,openIAT,2020.1.0rc3,MacIntel,60,a,1,1.609,,,,,,,,1.609,1,0,15,15,10,1,stimuli/blank.png,Good,a,,,,,,,,
,,,,,,,,,,,,,bumblez,1,001,male,2024-03-30_20h19.21.162,openIAT,2020.1.0rc3,MacIntel,60,l,1,0.733,,,,,,,,0.733,1,0,16,16,17,1,stimuli/blank.png,Evil,l,,,,,,,,
,,,,,,,,,,,,,bumblez,1,001,male,2024-03-30_20h19.21.162,openIAT,2020.1.0rc3,MacIntel,60,l,1,0.812,,,,,,,,0.812,1,0,17,17,1,1,stimuli/white_1.jpg,,l,,,,,,,,
,,,,,,,,,,,,,bumblez,1,001,male,2024-03-30_20h19.21.162,openIAT,2020.1.0rc3,MacIntel,60,a,1,0.64,,,,,,,,0.64,1,0,18,18,4,1,stimuli/black_3.jpg,,a,,,,,,,,
,,,,,,,,,,,,,bumblez,1,001,male,2024-03-30_20h19.21.162,openIAT,2020.1.0rc3,MacIntel,60,a,1,1.445,,,,,,,,1.445,1,0,19,19,18,1,stimuli/blank.png,Joy,a,,,,,,,,
