instr_done_touch.x,instr_done_touch.y,instr_done_touch.leftButton,instr_done_touch.midButton,instr_done_touch.rightButton,instr_done_touch.clicked_name,instruct_pages.thisRepN,instruct_pages.thisTrialN,instruct_pages.thisN,instruct_pages.thisIndex,instruct_pages.ran,pageN,instruct_text,participant,order,session,gender,date,expName,psychopyVersion,OS,frameRate,key_resp.keys,key_resp.corr,key_resp.rt,touch_resp.x,touch_resp.y,touch_resp.leftButton,touch_resp.midButton,touch_resp.rightButton,touch_resp.time,touch_resp.clicked_name,rt,corr,trials.thisRepN,trials.thisTrialN,trials.thisN,trials.thisIndex,trials.ran,stimImage,stimWord,CorrAns,blocks.thisRepN,blocks.thisTrialN,blocks.thisN,blocks.thisIndex,blocks.ran,conds_file,label_left,label_right
0.030555556,-0.412037037,1,0,0,instr_done_button,0,0,0,0,1,1,"You will be presented with words or images to classify into categories using either the 'A' or 'L' key. 
 
Try to go as fast as possible while making as few mistakes as possible. 
",cat,2,001,male,2024-08-21_14h19.25.443,openIAT,2020.1.0rc3,Win32,60,,,,,,,,,,,,,,,,,,,,,,,,,,,,
0.074074074,-0.405555556,1,0,0,instr_done_button,0,1,1,1,1,2,"Keep in mind: 
 
1) Labels at the top of the screen indicate which catogory goes with which key. 
 
2) Each word or image has a correct catogory classification 
 
3) Keep your index fingers on the A and L keys to enable a rapid response. 
 
4) The test gives no results if you go slow- please try to go as fast as possible 
",cat,2,001,male,2024-08-21_14h19.25.443,openIAT,2020.1.0rc3,Win32,60,,,,,,,,,,,,,,,,,,,,,,,,,,,,
,,,,,,,,,,,,,cat,2,001,male,2024-08-21_14h19.25.443,openIAT,2020.1.0rc3,Win32,60,a,1,0.9861,,,,,,,,0.9861,1,0,0,0,6,1,stimuli/blank.png,Love,a,,,,,,,,
,,,,,,,,,,,,,cat,2,001,male,2024-08-21_14h19.25.443,openIAT,2020.1.0rc3,Win32,60,l,1,1.1968,,,,,,,,1.1968,1,0,1,1,7,1,stimuli/blank.png,Evil,l,,,,,,,,
,,,,,,,,,,,,,cat,2,001,male,2024-08-21_14h19.25.443,openIAT,2020.1.0rc3,Win32,60,a,1,0.6372,,,,,,,,0.6372,1,0,2,2,2,1,stimuli/blank.png,Happy,a,,,,,,,,
,,,,,,,,,,,,,cat,2,001,male,2024-08-21_14h19.25.443,openIAT,2020.1.0rc3,Win32,60,a,1,0.6,,,,,,,,0.6,1,0,3,3,4,1,stimuli/blank.png,Pleasure,a,,,,,,,,
,,,,,,,,,,,,,cat,2,001,male,2024-08-21_14h19.25.443,openIAT,2020.1.0rc3,Win32,60,a,0,0.5186,,,,,,,,0.5186,0,0,4,4,1,1,stimuli/blank.png,Bad,l,,,,,,,,
,,,,,,,,,,,,,cat,2,001,male,2024-08-21_14h19.25.443,openIAT,2020.1.0rc3,Win32,60,l,1,0.9977,,,,,,,,0.9977,1,0,5,5,9,1,stimuli/blank.png,Nasty,l,,,,,,,,
,,,,,,,,,,,,,cat,2,001,male,2024-08-21_14h19.25.443,openIAT,2020.1.0rc3,Win32,60,l,0,0.7047,,,,,,,,0.7047,0,0,6,6,0,1,stimuli/blank.png,Good,a,,,,,,,,
,,,,,,,,,,,,,cat,2,001,male,2024-08-21_14h19.25.443,openIAT,2020.1.0rc3,Win32,60,l,1,1.8343,,,,,,,,1.8343,1,0,7,7,5,1,stimuli/blank.png,Agony,l,,,,,,,,
,,,,,,,,,,,,,cat,2,001,male,2024-08-21_14h19.25.443,openIAT,2020.1.0rc3,Win32,60,a,1,1.1674,,,,,,,,1.1674,1,0,8,8,8,1,stimuli/blank.png,Joy,a,,,,,,,,
,,,,,,,,,,,,,cat,2,001,male,2024-08-21_14h19.25.443,openIAT,2020.1.0rc3,Win32,60,l,1,0.7643,,,,,,,,0.7643,1,0,9,9,3,1,stimuli/blank.png,Hurt,l,,,,,,,,
,,,,,,,,,,,,,cat,2,001,male,2024-08-21_14h19.25.443,openIAT,2020.1.0rc3,Win32,60,,,,,,,,,,,,,,,,,,,,,0,0,0,0,1,pos_neg_train.xlsx,"A = 
Positive","L = 
Negative"
,,,,,,,,,,,,,cat,2,001,male,2024-08-21_14h19.25.443,openIAT,2020.1.0rc3,Win32,60,a,1,1.6468,,,,,,,,1.6468,1,0,0,0,6,1,stimuli/black_4.jpg,,a,,,,,,,,
,,,,,,,,,,,,,cat,2,001,male,2024-08-21_14h19.25.443,openIAT,2020.1.0rc3,Win32,60,a,1,2.1164,,,,,,,,2.1164,1,0,1,1,8,1,stimuli/black_5.jpg,,a,,,,,,,,
,,,,,,,,,,,,,cat,2,001,male,2024-08-21_14h19.25.443,openIAT,2020.1.0rc3,Win32,60,l,1,1.549,,,,,,,,1.549,1,0,2,2,9,1,stimuli/white_5.jpg,,l,,,,,,,,
,,,,,,,,,,,,,cat,2,001,male,2024-08-21_14h19.25.443,openIAT,2020.1.0rc3,Win32,60,l,0,1.6169,,,,,,,,1.6169,0,0,3,3,0,1,stimuli/black_1.jpg,,a,,,,,,,,
,,,,,,,,,,,,,cat,2,001,male,2024-08-21_14h19.25.443,openIAT,2020.1.0rc3,Win32,60,a,1,1.5143,,,,,,,,1.5143,1,0,4,4,2,1,stimuli/black_2.jpg,,a,,,,,,,,
,,,,,,,,,,,,,cat,2,001,male,2024-08-21_14h19.25.443,openIAT,2020.1.0rc3,Win32,60,l,1,0.8311,,,,,,,,0.8311,1,0,5,5,1,1,stimuli/white_1.jpg,,l,,,,,,,,
,,,,,,,,,,,,,cat,2,001,male,2024-08-21_14h19.25.443,openIAT,2020.1.0rc3,Win32,60,l,1,1.1803,,,,,,,,1.1803,1,0,6,6,7,1,stimuli/white_4.jpg,,l,,,,,,,,
,,,,,,,,,,,,,cat,2,001,male,2024-08-21_14h19.25.443,openIAT,2020.1.0rc3,Win32,60,l,1,0.8157,,,,,,,,0.8157,1,0,7,7,5,1,stimuli/white_3.jpg,,l,,,,,,,,
,,,,,,,,,,,,,cat,2,001,male,2024-08-21_14h19.25.443,openIAT,2020.1.0rc3,Win32,60,l,1,0.5812,,,,,,,,0.5812,1,0,8,8,3,1,stimuli/white_2.jpg,,l,,,,,,,,
,,,,,,,,,,,,,cat,2,001,male,2024-08-21_14h19.25.443,openIAT,2020.1.0rc3,Win32,60,a,1,0.871,,,,,,,,0.871,1,0,9,9,4,1,stimuli/black_3.jpg,,a,,,,,,,,
,,,,,,,,,,,,,cat,2,001,male,2024-08-21_14h19.25.443,openIAT,2020.1.0rc3,Win32,60,,,,,,,,,,,,,,,,,,,,,0,1,1,1,1,incong_train.xlsx,"A = 
Black","L = 
White"
,,,,,,,,,,,,,cat,2,001,male,2024-08-21_14h19.25.443,openIAT,2020.1.0rc3,Win32,60,a,1,6.7955,,,,,,,,6.7955,1,0,0,0,10,1,stimuli/blank.png,Good,a,,,,,,,,
,,,,,,,,,,,,,cat,2,001,male,2024-08-21_14h19.25.443,openIAT,2020.1.0rc3,Win32,60,a,1,2.5964,,,,,,,,2.5964,1,0,1,1,6,1,stimuli/black_4.jpg,,a,,,,,,,,
,,,,,,,,,,,,,cat,2,001,male,2024-08-21_14h19.25.443,openIAT,2020.1.0rc3,Win32,60,a,0,3.2795,,,,,,,,3.2795,0,0,2,2,11,1,stimuli/blank.png,Bad,l,,,,,,,,
,,,,,,,,,,,,,cat,2,001,male,2024-08-21_14h19.25.443,openIAT,2020.1.0rc3,Win32,60,a,1,6.5973,,,,,,,,6.5973,1,0,3,3,8,1,stimuli/black_5.jpg,,a,,,,,,,,
,,,,,,,,,,,,,cat,2,001,male,2024-08-21_14h19.25.443,openIAT,2020.1.0rc3,Win32,60,a,1,2.5487,,,,,,,,2.5487,1,0,4,4,18,1,stimuli/blank.png,Joy,a,,,,,,,,
,,,,,,,,,,,,,cat,2,001,male,2024-08-21_14h19.25.443,openIAT,2020.1.0rc3,Win32,60,l,1,1.0127,,,,,,,,1.0127,1,0,5,5,5,1,stimuli/white_3.jpg,,l,,,,,,,,
,,,,,,,,,,,,,cat,2,001,male,2024-08-21_14h19.25.443,openIAT,2020.1.0rc3,Win32,60,l,1,5.8957,0.578485181,-0.130076839,1,0,0,5.1311,,5.8957,1,0,6,6,17,1,stimuli/blank.png,Evil,l,,,,,,,,
,,,,,,,,,,,,,cat,2,001,male,2024-08-21_14h19.25.443,openIAT,2020.1.0rc3,Win32,60,a,1,1.5807,,,,,,,,1.5807,1,0,7,7,4,1,stimuli/black_3.jpg,,a,,,,,,,,
,,,,,,,,,,,,,cat,2,001,male,2024-08-21_14h19.25.443,openIAT,2020.1.0rc3,Win32,60,a,1,0.9542,,,,,,,,0.9542,1,0,8,8,2,1,stimuli/black_2.jpg,,a,,,,,,,,
,,,,,,,,,,,,,cat,2,001,male,2024-08-21_14h19.25.443,openIAT,2020.1.0rc3,Win32,60,l,1,0.8979,,,,,,,,0.8979,1,0,9,9,3,1,stimuli/white_2.jpg,,l,,,,,,,,
,,,,,,,,,,,,,cat,2,001,male,2024-08-21_14h19.25.443,openIAT,2020.1.0rc3,Win32,60,l,1,1.4061,,,,,,,,1.4061,1,0,10,10,19,1,stimuli/blank.png,Nasty,l,,,,,,,,
,,,,,,,,,,,,,cat,2,001,male,2024-08-21_14h19.25.443,openIAT,2020.1.0rc3,Win32,60,a,1,1.2911,,,,,,,,1.2911,1,0,11,11,16,1,stimuli/blank.png,Love,a,,,,,,,,
,,,,,,,,,,,,,cat,2,001,male,2024-08-21_14h19.25.443,openIAT,2020.1.0rc3,Win32,60,l,1,0.9214,,,,,,,,0.9214,1,0,12,12,1,1,stimuli/white_1.jpg,,l,,,,,,,,
,,,,,,,,,,,,,cat,2,001,male,2024-08-21_14h19.25.443,openIAT,2020.1.0rc3,Win32,60,a,1,0.7014,,,,,,,,0.7014,1,0,13,13,12,1,stimuli/blank.png,Happy,a,,,,,,,,
,,,,,,,,,,,,,cat,2,001,male,2024-08-21_14h19.25.443,openIAT,2020.1.0rc3,Win32,60,l,1,1.0792,,,,,,,,1.0792,1,0,14,14,13,1,stimuli/blank.png,Hurt,l,,,,,,,,
,,,,,,,,,,,,,cat,2,001,male,2024-08-21_14h19.25.443,openIAT,2020.1.0rc3,Win32,60,a,1,1.6039,,,,,,,,1.6039,1,0,15,15,14,1,stimuli/blank.png,Pleasure,a,,,,,,,,
,,,,,,,,,,,,,cat,2,001,male,2024-08-21_14h19.25.443,openIAT,2020.1.0rc3,Win32,60,l,1,0.6493,,,,,,,,0.6493,1,0,16,16,9,1,stimuli/white_5.jpg,,l,,,,,,,,
,,,,,,,,,,,,,cat,2,001,male,2024-08-21_14h19.25.443,openIAT,2020.1.0rc3,Win32,60,l,0,0.6633,,,,,,,,0.6633,0,0,17,17,0,1,stimuli/black_1.jpg,,a,,,,,,,,
,,,,,,,,,,,,,cat,2,001,male,2024-08-21_14h19.25.443,openIAT,2020.1.0rc3,Win32,60,l,1,1.1403,,,,,,,,1.1403,1,0,18,18,7,1,stimuli/white_4.jpg,,l,,,,,,,,
,,,,,,,,,,,,,cat,2,001,male,2024-08-21_14h19.25.443,openIAT,2020.1.0rc3,Win32,60,l,1,2.4212,,,,,,,,2.4212,1,0,19,19,15,1,stimuli/blank.png,Agony,l,,,,,,,,
,,,,,,,,,,,,,cat,2,001,male,2024-08-21_14h19.25.443,openIAT,2020.1.0rc3,Win32,60,,,,,,,,,,,,,,,,,,,,,0,2,2,2,1,incong_test.xlsx,"A = 
Black or 
Positive","L = 
White or 
Negative"
,,,,,,,,,,,,,cat,2,001,male,2024-08-21_14h19.25.443,openIAT,2020.1.0rc3,Win32,60,l,1,4.0798,,,,,,,,4.0798,1,0,0,0,2,1,stimuli/black_2.jpg,NaN,l,,,,,,,,
,,,,,,,,,,,,,cat,2,001,male,2024-08-21_14h19.25.443,openIAT,2020.1.0rc3,Win32,60,l,1,0.9979,,,,,,,,0.9979,1,0,1,1,6,1,stimuli/black_4.jpg,NaN,l,,,,,,,,
,,,,,,,,,,,,,cat,2,001,male,2024-08-21_14h19.25.443,openIAT,2020.1.0rc3,Win32,60,l,1,0.7304,,,,,,,,0.7304,1,0,2,2,0,1,stimuli/black_1.jpg,NaN,l,,,,,,,,
,,,,,,,,,,,,,cat,2,001,male,2024-08-21_14h19.25.443,openIAT,2020.1.0rc3,Win32,60,a,1,0.5993,,,,,,,,0.5993,1,0,3,3,7,1,stimuli/white_4.jpg,NaN,a,,,,,,,,
,,,,,,,,,,,,,cat,2,001,male,2024-08-21_14h19.25.443,openIAT,2020.1.0rc3,Win32,60,a,1,0.5881,,,,,,,,0.5881,1,0,4,4,1,1,stimuli/white_1.jpg,NaN,a,,,,,,,,
,,,,,,,,,,,,,cat,2,001,male,2024-08-21_14h19.25.443,openIAT,2020.1.0rc3,Win32,60,a,0,0.4649,,,,,,,,0.4649,0,0,5,5,4,1,stimuli/black_3.jpg,NaN,l,,,,,,,,
,,,,,,,,,,,,,cat,2,001,male,2024-08-21_14h19.25.443,openIAT,2020.1.0rc3,Win32,60,l,1,0.8475,,,,,,,,0.8475,1,0,6,6,8,1,stimuli/black_5.jpg,NaN,l,,,,,,,,
,,,,,,,,,,,,,cat,2,001,male,2024-08-21_14h19.25.443,openIAT,2020.1.0rc3,Win32,60,a,1,0.7843,,,,,,,,0.7843,1,0,7,7,5,1,stimuli/white_3.jpg,NaN,a,,,,,,,,
,,,,,,,,,,,,,cat,2,001,male,2024-08-21_14h19.25.443,openIAT,2020.1.0rc3,Win32,60,a,1,1.2462,,,,,,,,1.2462,1,0,8,8,3,1,stimuli/white_2.jpg,NaN,a,,,,,,,,
,,,,,,,,,,,,,cat,2,001,male,2024-08-21_14h19.25.443,openIAT,2020.1.0rc3,Win32,60,a,1,0.7228,,,,,,,,0.7228,1,0,9,9,9,1,stimuli/white_5.jpg,NaN,a,,,,,,,,
,,,,,,,,,,,,,cat,2,001,male,2024-08-21_14h19.25.443,openIAT,2020.1.0rc3,Win32,60,,,,,,,,,,,,,,,,,,,,,0,3,3,3,1,cong_train.xlsx,"A = 
White","L = 
Black"
,,,,,,,,,,,,,cat,2,001,male,2024-08-21_14h19.25.443,openIAT,2020.1.0rc3,Win32,60,a,1,1.6631,,,,,,,,1.6631,1,0,0,0,3,1,stimuli/white_2.jpg,NaN,a,,,,,,,,
,,,,,,,,,,,,,cat,2,001,male,2024-08-21_14h19.25.443,openIAT,2020.1.0rc3,Win32,60,l,1,0.6807,,,,,,,,0.6807,1,0,1,1,19,1,stimuli/blank.png,Nasty,l,,,,,,,,
,,,,,,,,,,,,,cat,2,001,male,2024-08-21_14h19.25.443,openIAT,2020.1.0rc3,Win32,60,l,1,1.2219,,,,,,,,1.2219,1,0,2,2,6,1,stimuli/black_4.jpg,NaN,l,,,,,,,,
,,,,,,,,,,,,,cat,2,001,male,2024-08-21_14h19.25.443,openIAT,2020.1.0rc3,Win32,60,l,1,2.7298,,,,,,,,2.7298,1,0,3,3,15,1,stimuli/blank.png,Agony,l,,,,,,,,
,,,,,,,,,,,,,cat,2,001,male,2024-08-21_14h19.25.443,openIAT,2020.1.0rc3,Win32,60,a,1,1.2854,,,,,,,,1.2854,1,0,4,4,14,1,stimuli/blank.png,Pleasure,a,,,,,,,,
,,,,,,,,,,,,,cat,2,001,male,2024-08-21_14h19.25.443,openIAT,2020.1.0rc3,Win32,60,a,1,0.633,,,,,,,,0.633,1,0,5,5,16,1,stimuli/blank.png,Love,a,,,,,,,,
,,,,,,,,,,,,,cat,2,001,male,2024-08-21_14h19.25.443,openIAT,2020.1.0rc3,Win32,60,a,1,0.7472,,,,,,,,0.7472,1,0,6,6,7,1,stimuli/white_4.jpg,NaN,a,,,,,,,,
,,,,,,,,,,,,,cat,2,001,male,2024-08-21_14h19.25.443,openIAT,2020.1.0rc3,Win32,60,l,1,0.9474,,,,,,,,0.9474,1,0,7,7,11,1,stimuli/blank.png,Bad,l,,,,,,,,
,,,,,,,,,,,,,cat,2,001,male,2024-08-21_14h19.25.443,openIAT,2020.1.0rc3,Win32,60,l,1,0.7885,,,,,,,,0.7885,1,0,8,8,13,1,stimuli/blank.png,Hurt,l,,,,,,,,
,,,,,,,,,,,,,cat,2,001,male,2024-08-21_14h19.25.443,openIAT,2020.1.0rc3,Win32,60,a,1,0.6636,,,,,,,,0.6636,1,0,9,9,1,1,stimuli/white_1.jpg,NaN,a,,,,,,,,
,,,,,,,,,,,,,cat,2,001,male,2024-08-21_14h19.25.443,openIAT,2020.1.0rc3,Win32,60,l,1,0.5533,,,,,,,,0.5533,1,0,10,10,4,1,stimuli/black_3.jpg,NaN,l,,,,,,,,
,,,,,,,,,,,,,cat,2,001,male,2024-08-21_14h19.25.443,openIAT,2020.1.0rc3,Win32,60,l,1,0.4983,,,,,,,,0.4983,1,0,11,11,2,1,stimuli/black_2.jpg,NaN,l,,,,,,,,
,,,,,,,,,,,,,cat,2,001,male,2024-08-21_14h19.25.443,openIAT,2020.1.0rc3,Win32,60,a,1,0.7331,,,,,,,,0.7331,1,0,12,12,10,1,stimuli/blank.png,Good,a,,,,,,,,
,,,,,,,,,,,,,cat,2,001,male,2024-08-21_14h19.25.443,openIAT,2020.1.0rc3,Win32,60,a,0,0.9503,,,,,,,,0.9503,0,0,13,13,17,1,stimuli/blank.png,Evil,l,,,,,,,,
,,,,,,,,,,,,,cat,2,001,male,2024-08-21_14h19.25.443,openIAT,2020.1.0rc3,Win32,60,a,1,0.7971,,,,,,,,0.7971,1,0,14,14,18,1,stimuli/blank.png,Joy,a,,,,,,,,
,,,,,,,,,,,,,cat,2,001,male,2024-08-21_14h19.25.443,openIAT,2020.1.0rc3,Win32,60,a,1,2.1163,,,,,,,,2.1163,1,0,15,15,12,1,stimuli/blank.png,Happy,a,,,,,,,,
,,,,,,,,,,,,,cat,2,001,male,2024-08-21_14h19.25.443,openIAT,2020.1.0rc3,Win32,60,l,1,0.7982,,,,,,,,0.7982,1,0,16,16,0,1,stimuli/black_1.jpg,NaN,l,,,,,,,,
,,,,,,,,,,,,,cat,2,001,male,2024-08-21_14h19.25.443,openIAT,2020.1.0rc3,Win32,60,l,1,0.7161,,,,,,,,0.7161,1,0,17,17,8,1,stimuli/black_5.jpg,NaN,l,,,,,,,,
,,,,,,,,,,,,,cat,2,001,male,2024-08-21_14h19.25.443,openIAT,2020.1.0rc3,Win32,60,a,1,2.0471,,,,,,,,2.0471,1,0,18,18,5,1,stimuli/white_3.jpg,NaN,a,,,,,,,,
,,,,,,,,,,,,,cat,2,001,male,2024-08-21_14h19.25.443,openIAT,2020.1.0rc3,Win32,60,a,1,1.1054,,,,,,,,1.1054,1,0,19,19,9,1,stimuli/white_5.jpg,NaN,a,,,,,,,,
