instr_done_touch.x,instr_done_touch.y,instr_done_touch.leftButton,instr_done_touch.midButton,instr_done_touch.rightButton,instr_done_touch.clicked_name,instruct_pages.thisRepN,instruct_pages.thisTrialN,instruct_pages.thisN,instruct_pages.thisIndex,instruct_pages.ran,pageN,instruct_text,participant,order,session,gender,date,expName,psychopyVersion,OS,frameRate,key_resp.keys,key_resp.corr,key_resp.rt,touch_resp.x,touch_resp.y,touch_resp.leftButton,touch_resp.midButton,touch_resp.rightButton,touch_resp.time,touch_resp.clicked_name,rt,corr,trials.thisRepN,trials.thisTrialN,trials.thisN,trials.thisIndex,trials.ran,stimImage,stimWord,CorrAns,blocks.thisRepN,blocks.thisTrialN,blocks.thisN,blocks.thisIndex,blocks.ran,conds_file,label_left,label_right
0.003703704,-0.424074074,1,0,0,instr_done_button,0,0,0,0,1,1,"You will be presented with words or images to classify into categories using either the 'A' or 'L' key. 
 
Try to go as fast as possible while making as few mistakes as possible. 
",D,1,001,female,2021-03-31_11h40.57.257,openIAT,2020.1.0rc3,MacIntel,60,,,,,,,,,,,,,,,,,,,,,,,,,,,,
-0.002777778,-0.391666667,1,0,0,instr_done_button,0,1,1,1,1,2,"Keep in mind: 
 
1) Labels at the top of the screen indicate which catogory goes with which key. 
 
2) Each word or image has a correct catogory classification 
 
3) Keep your index fingers on the A and L keys to enable a rapid response. 
 
4) The test gives no results if you go slow- please try to go as fast as possible 
",D,1,001,female,2021-03-31_11h40.57.257,openIAT,2020.1.0rc3,MacIntel,60,,,,,,,,,,,,,,,,,,,,,,,,,,,,
,,,,,,,,,,,,,D,1,001,female,2021-03-31_11h40.57.257,openIAT,2020.1.0rc3,MacIntel,60,a,1,1.921,,,,,,,,1.921,1,0,0,0,4,1,stimuli/blank.png,Pleasure,a,,,,,,,,
,,,,,,,,,,,,,D,1,001,female,2021-03-31_11h40.57.257,openIAT,2020.1.0rc3,MacIntel,60,a,1,0.725,,,,,,,,0.725,1,0,1,1,8,1,stimuli/blank.png,Joy,a,,,,,,,,
,,,,,,,,,,,,,D,1,001,female,2021-03-31_11h40.57.257,openIAT,2020.1.0rc3,MacIntel,60,l,1,1.188,,,,,,,,1.188,1,0,2,2,1,1,stimuli/blank.png,Bad,l,,,,,,,,
,,,,,,,,,,,,,D,1,001,female,2021-03-31_11h40.57.257,openIAT,2020.1.0rc3,MacIntel,60,a,1,0.665,,,,,,,,0.665,1,0,3,3,2,1,stimuli/blank.png,Happy,a,,,,,,,,
,,,,,,,,,,,,,D,1,001,female,2021-03-31_11h40.57.257,openIAT,2020.1.0rc3,MacIntel,60,a,1,0.628,,,,,,,,0.628,1,0,4,4,6,1,stimuli/blank.png,Love,a,,,,,,,,
,,,,,,,,,,,,,D,1,001,female,2021-03-31_11h40.57.257,openIAT,2020.1.0rc3,MacIntel,60,l,1,0.624,,,,,,,,0.624,1,0,5,5,9,1,stimuli/blank.png,Nasty,l,,,,,,,,
,,,,,,,,,,,,,D,1,001,female,2021-03-31_11h40.57.257,openIAT,2020.1.0rc3,MacIntel,60,a,1,0.504,,,,,,,,0.504,1,0,6,6,0,1,stimuli/blank.png,Good,a,,,,,,,,
,,,,,,,,,,,,,D,1,001,female,2021-03-31_11h40.57.257,openIAT,2020.1.0rc3,MacIntel,60,l,1,0.667,,,,,,,,0.667,1,0,7,7,5,1,stimuli/blank.png,Agony,l,,,,,,,,
,,,,,,,,,,,,,D,1,001,female,2021-03-31_11h40.57.257,openIAT,2020.1.0rc3,MacIntel,60,l,1,0.606,,,,,,,,0.606,1,0,8,8,7,1,stimuli/blank.png,Evil,l,,,,,,,,
,,,,,,,,,,,,,D,1,001,female,2021-03-31_11h40.57.257,openIAT,2020.1.0rc3,MacIntel,60,l,1,0.567,,,,,,,,0.567,1,0,9,9,3,1,stimuli/blank.png,Hurt,l,,,,,,,,
,,,,,,,,,,,,,D,1,001,female,2021-03-31_11h40.57.257,openIAT,2020.1.0rc3,MacIntel,60,,,,,,,,,,,,,,,,,,,,,0,0,0,0,1,pos_neg_train.xlsx,"A = 
Positive","L = 
Negative"
,,,,,,,,,,,,,D,1,001,female,2021-03-31_11h40.57.257,openIAT,2020.1.0rc3,MacIntel,60,l,1,1.417,,,,,,,,1.417,1,0,0,0,2,1,stimuli/black_2.jpg,NaN,l,,,,,,,,
,,,,,,,,,,,,,D,1,001,female,2021-03-31_11h40.57.257,openIAT,2020.1.0rc3,MacIntel,60,l,1,1.278,,,,,,,,1.278,1,0,1,1,4,1,stimuli/black_3.jpg,NaN,l,,,,,,,,
,,,,,,,,,,,,,D,1,001,female,2021-03-31_11h40.57.257,openIAT,2020.1.0rc3,MacIntel,60,a,1,0.773,,,,,,,,0.773,1,0,2,2,9,1,stimuli/white_5.jpg,NaN,a,,,,,,,,
,,,,,,,,,,,,,D,1,001,female,2021-03-31_11h40.57.257,openIAT,2020.1.0rc3,MacIntel,60,a,1,0.825,,,,,,,,0.825,1,0,3,3,5,1,stimuli/white_3.jpg,NaN,a,,,,,,,,
,,,,,,,,,,,,,D,1,001,female,2021-03-31_11h40.57.257,openIAT,2020.1.0rc3,MacIntel,60,a,1,0.63,,,,,,,,0.63,1,0,4,4,7,1,stimuli/white_4.jpg,NaN,a,,,,,,,,
,,,,,,,,,,,,,D,1,001,female,2021-03-31_11h40.57.257,openIAT,2020.1.0rc3,MacIntel,60,a,1,0.526,,,,,,,,0.526,1,0,5,5,1,1,stimuli/white_1.jpg,NaN,a,,,,,,,,
,,,,,,,,,,,,,D,1,001,female,2021-03-31_11h40.57.257,openIAT,2020.1.0rc3,MacIntel,60,l,1,0.645,,,,,,,,0.645,1,0,6,6,8,1,stimuli/black_5.jpg,NaN,l,,,,,,,,
,,,,,,,,,,,,,D,1,001,female,2021-03-31_11h40.57.257,openIAT,2020.1.0rc3,MacIntel,60,l,1,0.632,,,,,,,,0.632,1,0,7,7,0,1,stimuli/black_1.jpg,NaN,l,,,,,,,,
,,,,,,,,,,,,,D,1,001,female,2021-03-31_11h40.57.257,openIAT,2020.1.0rc3,MacIntel,60,l,1,0.543,,,,,,,,0.543,1,0,8,8,6,1,stimuli/black_4.jpg,NaN,l,,,,,,,,
,,,,,,,,,,,,,D,1,001,female,2021-03-31_11h40.57.257,openIAT,2020.1.0rc3,MacIntel,60,a,1,0.521,,,,,,,,0.521,1,0,9,9,3,1,stimuli/white_2.jpg,NaN,a,,,,,,,,
,,,,,,,,,,,,,D,1,001,female,2021-03-31_11h40.57.257,openIAT,2020.1.0rc3,MacIntel,60,,,,,,,,,,,,,,,,,,,,,0,1,1,1,1,cong_train.xlsx,"A = 
White","L = 
Black"
,,,,,,,,,,,,,D,1,001,female,2021-03-31_11h40.57.257,openIAT,2020.1.0rc3,MacIntel,60,l,1,1.06,,,,,,,,1.06,1,0,0,0,4,1,stimuli/black_3.jpg,NaN,l,,,,,,,,
,,,,,,,,,,,,,D,1,001,female,2021-03-31_11h40.57.257,openIAT,2020.1.0rc3,MacIntel,60,l,1,0.66,,,,,,,,0.66,1,0,1,1,6,1,stimuli/black_4.jpg,NaN,l,,,,,,,,
,,,,,,,,,,,,,D,1,001,female,2021-03-31_11h40.57.257,openIAT,2020.1.0rc3,MacIntel,60,a,1,1.99,,,,,,,,1.99,1,0,2,2,16,1,stimuli/blank.png,Love,a,,,,,,,,
,,,,,,,,,,,,,D,1,001,female,2021-03-31_11h40.57.257,openIAT,2020.1.0rc3,MacIntel,60,a,1,0.674,,,,,,,,0.674,1,0,3,3,14,1,stimuli/blank.png,Pleasure,a,,,,,,,,
,,,,,,,,,,,,,D,1,001,female,2021-03-31_11h40.57.257,openIAT,2020.1.0rc3,MacIntel,60,l,1,1.01,,,,,,,,1.01,1,0,4,4,13,1,stimuli/blank.png,Hurt,l,,,,,,,,
,,,,,,,,,,,,,D,1,001,female,2021-03-31_11h40.57.257,openIAT,2020.1.0rc3,MacIntel,60,l,1,0.662,,,,,,,,0.662,1,0,5,5,15,1,stimuli/blank.png,Agony,l,,,,,,,,
,,,,,,,,,,,,,D,1,001,female,2021-03-31_11h40.57.257,openIAT,2020.1.0rc3,MacIntel,60,a,1,0.576,,,,,,,,0.576,1,0,6,6,18,1,stimuli/blank.png,Joy,a,,,,,,,,
,,,,,,,,,,,,,D,1,001,female,2021-03-31_11h40.57.257,openIAT,2020.1.0rc3,MacIntel,60,l,1,0.838,,,,,,,,0.838,1,0,7,7,11,1,stimuli/blank.png,Bad,l,,,,,,,,
,,,,,,,,,,,,,D,1,001,female,2021-03-31_11h40.57.257,openIAT,2020.1.0rc3,MacIntel,60,a,1,0.474,,,,,,,,0.474,1,0,8,8,10,1,stimuli/blank.png,Good,a,,,,,,,,
,,,,,,,,,,,,,D,1,001,female,2021-03-31_11h40.57.257,openIAT,2020.1.0rc3,MacIntel,60,l,1,0.79,,,,,,,,0.79,1,0,9,9,8,1,stimuli/black_5.jpg,NaN,l,,,,,,,,
,,,,,,,,,,,,,D,1,001,female,2021-03-31_11h40.57.257,openIAT,2020.1.0rc3,MacIntel,60,a,1,0.648,,,,,,,,0.648,1,0,10,10,9,1,stimuli/white_5.jpg,NaN,a,,,,,,,,
,,,,,,,,,,,,,D,1,001,female,2021-03-31_11h40.57.257,openIAT,2020.1.0rc3,MacIntel,60,l,1,0.525,,,,,,,,0.525,1,0,11,11,0,1,stimuli/black_1.jpg,NaN,l,,,,,,,,
,,,,,,,,,,,,,D,1,001,female,2021-03-31_11h40.57.257,openIAT,2020.1.0rc3,MacIntel,60,l,1,1.044,,,,,,,,1.044,1,0,12,12,17,1,stimuli/blank.png,Evil,l,,,,,,,,
,,,,,,,,,,,,,D,1,001,female,2021-03-31_11h40.57.257,openIAT,2020.1.0rc3,MacIntel,60,a,1,1.329,,,,,,,,1.329,1,0,13,13,5,1,stimuli/white_3.jpg,NaN,a,,,,,,,,
,,,,,,,,,,,,,D,1,001,female,2021-03-31_11h40.57.257,openIAT,2020.1.0rc3,MacIntel,60,a,1,0.837,,,,,,,,0.837,1,0,14,14,12,1,stimuli/blank.png,Happy,a,,,,,,,,
,,,,,,,,,,,,,D,1,001,female,2021-03-31_11h40.57.257,openIAT,2020.1.0rc3,MacIntel,60,a,1,0.747,,,,,,,,0.747,1,0,15,15,3,1,stimuli/white_2.jpg,NaN,a,,,,,,,,
,,,,,,,,,,,,,D,1,001,female,2021-03-31_11h40.57.257,openIAT,2020.1.0rc3,MacIntel,60,l,1,0.658,,,,,,,,0.658,1,0,16,16,2,1,stimuli/black_2.jpg,NaN,l,,,,,,,,
,,,,,,,,,,,,,D,1,001,female,2021-03-31_11h40.57.257,openIAT,2020.1.0rc3,MacIntel,60,a,1,0.608,,,,,,,,0.608,1,0,17,17,7,1,stimuli/white_4.jpg,NaN,a,,,,,,,,
,,,,,,,,,,,,,D,1,001,female,2021-03-31_11h40.57.257,openIAT,2020.1.0rc3,MacIntel,60,l,1,1.212,,,,,,,,1.212,1,0,18,18,19,1,stimuli/blank.png,Nasty,l,,,,,,,,
,,,,,,,,,,,,,D,1,001,female,2021-03-31_11h40.57.257,openIAT,2020.1.0rc3,MacIntel,60,a,1,1.358,,,,,,,,1.358,1,0,19,19,1,1,stimuli/white_1.jpg,NaN,a,,,,,,,,
,,,,,,,,,,,,,D,1,001,female,2021-03-31_11h40.57.257,openIAT,2020.1.0rc3,MacIntel,60,,,,,,,,,,,,,,,,,,,,,0,2,2,2,1,cong_test.xlsx,"A = 
White or 
Positive","L = 
Black or 
Negative"
,,,,,,,,,,,,,D,1,001,female,2021-03-31_11h40.57.257,openIAT,2020.1.0rc3,MacIntel,60,l,1,0.806,,,,,,,,0.806,1,0,0,0,3,1,stimuli/white_2.jpg,,l,,,,,,,,
,,,,,,,,,,,,,D,1,001,female,2021-03-31_11h40.57.257,openIAT,2020.1.0rc3,MacIntel,60,a,1,0.537,,,,,,,,0.537,1,0,1,1,8,1,stimuli/black_5.jpg,,a,,,,,,,,
,,,,,,,,,,,,,D,1,001,female,2021-03-31_11h40.57.257,openIAT,2020.1.0rc3,MacIntel,60,a,1,0.729,,,,,,,,0.729,1,0,2,2,4,1,stimuli/black_3.jpg,,a,,,,,,,,
,,,,,,,,,,,,,D,1,001,female,2021-03-31_11h40.57.257,openIAT,2020.1.0rc3,MacIntel,60,a,1,0.808,,,,,,,,0.808,1,0,3,3,0,1,stimuli/black_1.jpg,,a,,,,,,,,
,,,,,,,,,,,,,D,1,001,female,2021-03-31_11h40.57.257,openIAT,2020.1.0rc3,MacIntel,60,l,1,0.677,,,,,,,,0.677,1,0,4,4,7,1,stimuli/white_4.jpg,,l,,,,,,,,
,,,,,,,,,,,,,D,1,001,female,2021-03-31_11h40.57.257,openIAT,2020.1.0rc3,MacIntel,60,a,1,0.661,,,,,,,,0.661,1,0,5,5,6,1,stimuli/black_4.jpg,,a,,,,,,,,
,,,,,,,,,,,,,D,1,001,female,2021-03-31_11h40.57.257,openIAT,2020.1.0rc3,MacIntel,60,l,1,0.588,,,,,,,,0.588,1,0,6,6,9,1,stimuli/white_5.jpg,,l,,,,,,,,
,,,,,,,,,,,,,D,1,001,female,2021-03-31_11h40.57.257,openIAT,2020.1.0rc3,MacIntel,60,l,1,0.539,,,,,,,,0.539,1,0,7,7,5,1,stimuli/white_3.jpg,,l,,,,,,,,
,,,,,,,,,,,,,D,1,001,female,2021-03-31_11h40.57.257,openIAT,2020.1.0rc3,MacIntel,60,l,1,0.527,,,,,,,,0.527,1,0,8,8,1,1,stimuli/white_1.jpg,,l,,,,,,,,
,,,,,,,,,,,,,D,1,001,female,2021-03-31_11h40.57.257,openIAT,2020.1.0rc3,MacIntel,60,a,1,0.523,,,,,,,,0.523,1,0,9,9,2,1,stimuli/black_2.jpg,,a,,,,,,,,
,,,,,,,,,,,,,D,1,001,female,2021-03-31_11h40.57.257,openIAT,2020.1.0rc3,MacIntel,60,,,,,,,,,,,,,,,,,,,,,0,3,3,3,1,incong_train.xlsx,"A = 
Black","L = 
White"
,,,,,,,,,,,,,D,1,001,female,2021-03-31_11h40.57.257,openIAT,2020.1.0rc3,MacIntel,60,l,1,1.924,,,,,,,,1.924,1,0,0,0,17,1,stimuli/blank.png,Evil,l,,,,,,,,
,,,,,,,,,,,,,D,1,001,female,2021-03-31_11h40.57.257,openIAT,2020.1.0rc3,MacIntel,60,l,1,1.092,,,,,,,,1.092,1,0,1,1,9,1,stimuli/white_5.jpg,,l,,,,,,,,
,,,,,,,,,,,,,D,1,001,female,2021-03-31_11h40.57.257,openIAT,2020.1.0rc3,MacIntel,60,l,1,0.825,,,,,,,,0.825,1,0,2,2,7,1,stimuli/white_4.jpg,,l,,,,,,,,
,,,,,,,,,,,,,D,1,001,female,2021-03-31_11h40.57.257,openIAT,2020.1.0rc3,MacIntel,60,a,1,1.205,,,,,,,,1.205,1,0,3,3,14,1,stimuli/blank.png,Pleasure,a,,,,,,,,
,,,,,,,,,,,,,D,1,001,female,2021-03-31_11h40.57.257,openIAT,2020.1.0rc3,MacIntel,60,a,1,0.729,,,,,,,,0.729,1,0,4,4,6,1,stimuli/black_4.jpg,,a,,,,,,,,
,,,,,,,,,,,,,D,1,001,female,2021-03-31_11h40.57.257,openIAT,2020.1.0rc3,MacIntel,60,a,1,0.641,,,,,,,,0.641,1,0,5,5,4,1,stimuli/black_3.jpg,,a,,,,,,,,
,,,,,,,,,,,,,D,1,001,female,2021-03-31_11h40.57.257,openIAT,2020.1.0rc3,MacIntel,60,l,1,0.962,,,,,,,,0.962,1,0,6,6,13,1,stimuli/blank.png,Hurt,l,,,,,,,,
,,,,,,,,,,,,,D,1,001,female,2021-03-31_11h40.57.257,openIAT,2020.1.0rc3,MacIntel,60,l,1,0.724,,,,,,,,0.724,1,0,7,7,3,1,stimuli/white_2.jpg,,l,,,,,,,,
,,,,,,,,,,,,,D,1,001,female,2021-03-31_11h40.57.257,openIAT,2020.1.0rc3,MacIntel,60,a,1,0.624,,,,,,,,0.624,1,0,8,8,2,1,stimuli/black_2.jpg,,a,,,,,,,,
,,,,,,,,,,,,,D,1,001,female,2021-03-31_11h40.57.257,openIAT,2020.1.0rc3,MacIntel,60,a,1,2.625,,,,,,,,2.625,1,0,9,9,12,1,stimuli/blank.png,Happy,a,,,,,,,,
,,,,,,,,,,,,,D,1,001,female,2021-03-31_11h40.57.257,openIAT,2020.1.0rc3,MacIntel,60,l,1,0.923,,,,,,,,0.923,1,0,10,10,11,1,stimuli/blank.png,Bad,l,,,,,,,,
,,,,,,,,,,,,,D,1,001,female,2021-03-31_11h40.57.257,openIAT,2020.1.0rc3,MacIntel,60,l,1,1.261,,,,,,,,1.261,1,0,11,11,15,1,stimuli/blank.png,Agony,l,,,,,,,,
,,,,,,,,,,,,,D,1,001,female,2021-03-31_11h40.57.257,openIAT,2020.1.0rc3,MacIntel,60,l,1,1.627,,,,,,,,1.627,1,0,12,12,5,1,stimuli/white_3.jpg,,l,,,,,,,,
,,,,,,,,,,,,,D,1,001,female,2021-03-31_11h40.57.257,openIAT,2020.1.0rc3,MacIntel,60,a,1,1.396,,,,,,,,1.396,1,0,13,13,18,1,stimuli/blank.png,Joy,a,,,,,,,,
,,,,,,,,,,,,,D,1,001,female,2021-03-31_11h40.57.257,openIAT,2020.1.0rc3,MacIntel,60,a,1,1.759,,,,,,,,1.759,1,0,14,14,0,1,stimuli/black_1.jpg,,a,,,,,,,,
,,,,,,,,,,,,,D,1,001,female,2021-03-31_11h40.57.257,openIAT,2020.1.0rc3,MacIntel,60,l,1,1.012,,,,,,,,1.012,1,0,15,15,1,1,stimuli/white_1.jpg,,l,,,,,,,,
,,,,,,,,,,,,,D,1,001,female,2021-03-31_11h40.57.257,openIAT,2020.1.0rc3,MacIntel,60,a,1,1.292,,,,,,,,1.292,1,0,16,16,16,1,stimuli/blank.png,Love,a,,,,,,,,
,,,,,,,,,,,,,D,1,001,female,2021-03-31_11h40.57.257,openIAT,2020.1.0rc3,MacIntel,60,a,1,1.11,,,,,,,,1.11,1,0,17,17,8,1,stimuli/black_5.jpg,,a,,,,,,,,
,,,,,,,,,,,,,D,1,001,female,2021-03-31_11h40.57.257,openIAT,2020.1.0rc3,MacIntel,60,l,0,1.097,,,,,,,,1.097,0,0,18,18,10,1,stimuli/blank.png,Good,a,,,,,,,,
,,,,,,,,,,,,,D,1,001,female,2021-03-31_11h40.57.257,openIAT,2020.1.0rc3,MacIntel,60,l,1,1.867,,,,,,,,1.867,1,0,19,19,19,1,stimuli/blank.png,Nasty,l,,,,,,,,
