instr_done_touch.x,instr_done_touch.y,instr_done_touch.leftButton,instr_done_touch.midButton,instr_done_touch.rightButton,instr_done_touch.clicked_name,instruct_pages.thisRepN,instruct_pages.thisTrialN,instruct_pages.thisN,instruct_pages.thisIndex,instruct_pages.ran,pageN,instruct_text,participant,order,session,gender,date,expName,psychopyVersion,OS,frameRate,key_resp.keys,key_resp.corr,key_resp.rt,touch_resp.x,touch_resp.y,touch_resp.leftButton,touch_resp.midButton,touch_resp.rightButton,touch_resp.time,touch_resp.clicked_name,rt,corr,trials.thisRepN,trials.thisTrialN,trials.thisN,trials.thisIndex,trials.ran,stimImage,stimWord,CorrAns,blocks.thisRepN,blocks.thisTrialN,blocks.thisN,blocks.thisIndex,blocks.ran,conds_file,label_left,label_right
0.050370348,-0.400000092,1,0,0,instr_done_button,0,0,0,0,1,1,"You will be presented with words or images to classify into categories using either the 'A' or 'L' key. 
 
Try to go as fast as possible while making as few mistakes as possible. 
",Dana,1,001,female,2020-08-30_15h04.55.894,openIAT,2020.1.0rc3,Win32,60,,,,,,,,,,,,,,,,,,,,,,,,,,,,
-0.018148169,-0.400000092,1,0,0,instr_done_button,0,1,1,1,1,2,"Keep in mind: 
 
1) Labels at the top of the screen indicate which catogory goes with which key. 
 
2) Each word or image has a correct catogory classification 
 
3) Keep your index fingers on the A and L keys to enable a rapid response. 
 
4) The test gives no results if you go slow- please try to go as fast as possible 
",Dana,1,001,female,2020-08-30_15h04.55.894,openIAT,2020.1.0rc3,Win32,60,,,,,,,,,,,,,,,,,,,,,,,,,,,,
,,,,,,,,,,,,,Dana,1,001,female,2020-08-30_15h04.55.894,openIAT,2020.1.0rc3,Win32,60,l,1,2.34569,,,,,,,,2.34569,1,0,0,0,5,1,stimuli/blank.png,Agony,l,,,,,,,,
,,,,,,,,,,,,,Dana,1,001,female,2020-08-30_15h04.55.894,openIAT,2020.1.0rc3,Win32,60,a,1,1.155745,,,,,,,,1.155745,1,0,1,1,4,1,stimuli/blank.png,Pleasure,a,,,,,,,,
,,,,,,,,,,,,,Dana,1,001,female,2020-08-30_15h04.55.894,openIAT,2020.1.0rc3,Win32,60,l,1,1.18853,,,,,,,,1.18853,1,0,2,2,7,1,stimuli/blank.png,Evil,l,,,,,,,,
,,,,,,,,,,,,,Dana,1,001,female,2020-08-30_15h04.55.894,openIAT,2020.1.0rc3,Win32,60,a,1,0.84194,,,,,,,,0.84194,1,0,3,3,2,1,stimuli/blank.png,Happy,a,,,,,,,,
,,,,,,,,,,,,,Dana,1,001,female,2020-08-30_15h04.55.894,openIAT,2020.1.0rc3,Win32,60,a,1,0.82422,,,,,,,,0.82422,1,0,4,4,6,1,stimuli/blank.png,Love,a,,,,,,,,
,,,,,,,,,,,,,Dana,1,001,female,2020-08-30_15h04.55.894,openIAT,2020.1.0rc3,Win32,60,a,1,0.666735,,,,,,,,0.666735,1,0,5,5,0,1,stimuli/blank.png,Good,a,,,,,,,,
,,,,,,,,,,,,,Dana,1,001,female,2020-08-30_15h04.55.894,openIAT,2020.1.0rc3,Win32,60,l,1,0.68825,,,,,,,,0.68825,1,0,6,6,3,1,stimuli/blank.png,Hurt,l,,,,,,,,
,,,,,,,,,,,,,Dana,1,001,female,2020-08-30_15h04.55.894,openIAT,2020.1.0rc3,Win32,60,l,1,0.790545,,,,,,,,0.790545,1,0,7,7,9,1,stimuli/blank.png,Nasty,l,,,,,,,,
,,,,,,,,,,,,,Dana,1,001,female,2020-08-30_15h04.55.894,openIAT,2020.1.0rc3,Win32,60,a,1,0.750195,,,,,,,,0.750195,1,0,8,8,8,1,stimuli/blank.png,Joy,a,,,,,,,,
,,,,,,,,,,,,,Dana,1,001,female,2020-08-30_15h04.55.894,openIAT,2020.1.0rc3,Win32,60,l,1,1.07164,,,,,,,,1.07164,1,0,9,9,1,1,stimuli/blank.png,Bad,l,,,,,,,,
,,,,,,,,,,,,,Dana,1,001,female,2020-08-30_15h04.55.894,openIAT,2020.1.0rc3,Win32,60,,,,,,,,,,,,,,,,,,,,,0,0,0,0,1,pos_neg_train.xlsx,"A = 
Positive","L = 
Negative"
,,,,,,,,,,,,,Dana,1,001,female,2020-08-30_15h04.55.894,openIAT,2020.1.0rc3,Win32,60,l,1,3.481555,,,,,,,,3.481555,1,0,0,0,8,1,stimuli/black_5.jpg,NaN,l,,,,,,,,
,,,,,,,,,,,,,Dana,1,001,female,2020-08-30_15h04.55.894,openIAT,2020.1.0rc3,Win32,60,l,1,1.7397,,,,,,,,1.7397,1,0,1,1,4,1,stimuli/black_3.jpg,NaN,l,,,,,,,,
,,,,,,,,,,,,,Dana,1,001,female,2020-08-30_15h04.55.894,openIAT,2020.1.0rc3,Win32,60,l,1,1.16011,,,,,,,,1.16011,1,0,2,2,0,1,stimuli/black_1.jpg,NaN,l,,,,,,,,
,,,,,,,,,,,,,Dana,1,001,female,2020-08-30_15h04.55.894,openIAT,2020.1.0rc3,Win32,60,l,1,1.376555,,,,,,,,1.376555,1,0,3,3,6,1,stimuli/black_4.jpg,NaN,l,,,,,,,,
,,,,,,,,,,,,,Dana,1,001,female,2020-08-30_15h04.55.894,openIAT,2020.1.0rc3,Win32,60,a,1,1.28079,,,,,,,,1.28079,1,0,4,4,7,1,stimuli/white_4.jpg,NaN,a,,,,,,,,
,,,,,,,,,,,,,Dana,1,001,female,2020-08-30_15h04.55.894,openIAT,2020.1.0rc3,Win32,60,a,1,0.75104,,,,,,,,0.75104,1,0,5,5,9,1,stimuli/white_5.jpg,NaN,a,,,,,,,,
,,,,,,,,,,,,,Dana,1,001,female,2020-08-30_15h04.55.894,openIAT,2020.1.0rc3,Win32,60,a,1,1.0676,,,,,,,,1.0676,1,0,6,6,1,1,stimuli/white_1.jpg,NaN,a,,,,,,,,
,,,,,,,,,,,,,Dana,1,001,female,2020-08-30_15h04.55.894,openIAT,2020.1.0rc3,Win32,60,a,1,0.966245,,,,,,,,0.966245,1,0,7,7,3,1,stimuli/white_2.jpg,NaN,a,,,,,,,,
,,,,,,,,,,,,,Dana,1,001,female,2020-08-30_15h04.55.894,openIAT,2020.1.0rc3,Win32,60,l,1,0.806095,,,,,,,,0.806095,1,0,8,8,2,1,stimuli/black_2.jpg,NaN,l,,,,,,,,
,,,,,,,,,,,,,Dana,1,001,female,2020-08-30_15h04.55.894,openIAT,2020.1.0rc3,Win32,60,a,1,1.554515,,,,,,,,1.554515,1,0,9,9,5,1,stimuli/white_3.jpg,NaN,a,,,,,,,,
,,,,,,,,,,,,,Dana,1,001,female,2020-08-30_15h04.55.894,openIAT,2020.1.0rc3,Win32,60,,,,,,,,,,,,,,,,,,,,,0,1,1,1,1,cong_train.xlsx,"A = 
White","L = 
Black"
,,,,,,,,,,,,,Dana,1,001,female,2020-08-30_15h04.55.894,openIAT,2020.1.0rc3,Win32,60,l,1,1.853805,,,,,,,,1.853805,1,0,0,0,11,1,stimuli/blank.png,Bad,l,,,,,,,,
,,,,,,,,,,,,,Dana,1,001,female,2020-08-30_15h04.55.894,openIAT,2020.1.0rc3,Win32,60,l,1,1.30788,,,,,,,,1.30788,1,0,1,1,0,1,stimuli/black_1.jpg,NaN,l,,,,,,,,
,,,,,,,,,,,,,Dana,1,001,female,2020-08-30_15h04.55.894,openIAT,2020.1.0rc3,Win32,60,a,1,0.768855,,,,,,,,0.768855,1,0,2,2,12,1,stimuli/blank.png,Happy,a,,,,,,,,
,,,,,,,,,,,,,Dana,1,001,female,2020-08-30_15h04.55.894,openIAT,2020.1.0rc3,Win32,60,a,1,0.88372,,,,,,,,0.88372,1,0,3,3,3,1,stimuli/white_2.jpg,NaN,a,,,,,,,,
,,,,,,,,,,,,,Dana,1,001,female,2020-08-30_15h04.55.894,openIAT,2020.1.0rc3,Win32,60,l,1,0.87302,,,,,,,,0.87302,1,0,4,4,17,1,stimuli/blank.png,Evil,l,,,,,,,,
,,,,,,,,,,,,,Dana,1,001,female,2020-08-30_15h04.55.894,openIAT,2020.1.0rc3,Win32,60,l,1,1.28861,,,,,,,,1.28861,1,0,5,5,8,1,stimuli/black_5.jpg,NaN,l,,,,,,,,
,,,,,,,,,,,,,Dana,1,001,female,2020-08-30_15h04.55.894,openIAT,2020.1.0rc3,Win32,60,a,1,0.82807,,,,,,,,0.82807,1,0,6,6,1,1,stimuli/white_1.jpg,NaN,a,,,,,,,,
,,,,,,,,,,,,,Dana,1,001,female,2020-08-30_15h04.55.894,openIAT,2020.1.0rc3,Win32,60,l,1,0.69953,,,,,,,,0.69953,1,0,7,7,6,1,stimuli/black_4.jpg,NaN,l,,,,,,,,
,,,,,,,,,,,,,Dana,1,001,female,2020-08-30_15h04.55.894,openIAT,2020.1.0rc3,Win32,60,a,1,0.76738,,,,,,,,0.76738,1,0,8,8,16,1,stimuli/blank.png,Love,a,,,,,,,,
,,,,,,,,,,,,,Dana,1,001,female,2020-08-30_15h04.55.894,openIAT,2020.1.0rc3,Win32,60,a,1,0.812095,,,,,,,,0.812095,1,0,9,9,10,1,stimuli/blank.png,Good,a,,,,,,,,
,,,,,,,,,,,,,Dana,1,001,female,2020-08-30_15h04.55.894,openIAT,2020.1.0rc3,Win32,60,l,1,0.67365,,,,,,,,0.67365,1,0,10,10,2,1,stimuli/black_2.jpg,NaN,l,,,,,,,,
,,,,,,,,,,,,,Dana,1,001,female,2020-08-30_15h04.55.894,openIAT,2020.1.0rc3,Win32,60,a,1,1.177635,,,,,,,,1.177635,1,0,11,11,7,1,stimuli/white_4.jpg,NaN,a,,,,,,,,
,,,,,,,,,,,,,Dana,1,001,female,2020-08-30_15h04.55.894,openIAT,2020.1.0rc3,Win32,60,l,1,0.69045,,,,,,,,0.69045,1,0,12,12,4,1,stimuli/black_3.jpg,NaN,l,,,,,,,,
,,,,,,,,,,,,,Dana,1,001,female,2020-08-30_15h04.55.894,openIAT,2020.1.0rc3,Win32,60,l,1,0.932365,,,,,,,,0.932365,1,0,13,13,19,1,stimuli/blank.png,Nasty,l,,,,,,,,
,,,,,,,,,,,,,Dana,1,001,female,2020-08-30_15h04.55.894,openIAT,2020.1.0rc3,Win32,60,l,1,0.755055,,,,,,,,0.755055,1,0,14,14,15,1,stimuli/blank.png,Agony,l,,,,,,,,
,,,,,,,,,,,,,Dana,1,001,female,2020-08-30_15h04.55.894,openIAT,2020.1.0rc3,Win32,60,a,1,0.620475,,,,,,,,0.620475,1,0,15,15,18,1,stimuli/blank.png,Joy,a,,,,,,,,
,,,,,,,,,,,,,Dana,1,001,female,2020-08-30_15h04.55.894,openIAT,2020.1.0rc3,Win32,60,a,1,1.22041,,,,,,,,1.22041,1,0,16,16,9,1,stimuli/white_5.jpg,NaN,a,,,,,,,,
,,,,,,,,,,,,,Dana,1,001,female,2020-08-30_15h04.55.894,openIAT,2020.1.0rc3,Win32,60,a,1,1.01307,,,,,,,,1.01307,1,0,17,17,14,1,stimuli/blank.png,Pleasure,a,,,,,,,,
,,,,,,,,,,,,,Dana,1,001,female,2020-08-30_15h04.55.894,openIAT,2020.1.0rc3,Win32,60,l,1,0.725345,,,,,,,,0.725345,1,0,18,18,13,1,stimuli/blank.png,Hurt,l,,,,,,,,
,,,,,,,,,,,,,Dana,1,001,female,2020-08-30_15h04.55.894,openIAT,2020.1.0rc3,Win32,60,a,1,1.253205,,,,,,,,1.253205,1,0,19,19,5,1,stimuli/white_3.jpg,NaN,a,,,,,,,,
,,,,,,,,,,,,,Dana,1,001,female,2020-08-30_15h04.55.894,openIAT,2020.1.0rc3,Win32,60,,,,,,,,,,,,,,,,,,,,,0,2,2,2,1,cong_test.xlsx,"A = 
White or 
Positive","L = 
Black or 
Negative"
,,,,,,,,,,,,,Dana,1,001,female,2020-08-30_15h04.55.894,openIAT,2020.1.0rc3,Win32,60,a,1,0.948895,,,,,,,,0.948895,1,0,0,0,0,1,stimuli/black_1.jpg,,a,,,,,,,,
,,,,,,,,,,,,,Dana,1,001,female,2020-08-30_15h04.55.894,openIAT,2020.1.0rc3,Win32,60,l,1,0.672155,,,,,,,,0.672155,1,0,1,1,9,1,stimuli/white_5.jpg,,l,,,,,,,,
,,,,,,,,,,,,,Dana,1,001,female,2020-08-30_15h04.55.894,openIAT,2020.1.0rc3,Win32,60,l,1,0.815765,,,,,,,,0.815765,1,0,2,2,5,1,stimuli/white_3.jpg,,l,,,,,,,,
,,,,,,,,,,,,,Dana,1,001,female,2020-08-30_15h04.55.894,openIAT,2020.1.0rc3,Win32,60,l,1,0.691795,,,,,,,,0.691795,1,0,3,3,3,1,stimuli/white_2.jpg,,l,,,,,,,,
,,,,,,,,,,,,,Dana,1,001,female,2020-08-30_15h04.55.894,openIAT,2020.1.0rc3,Win32,60,a,1,0.71282,,,,,,,,0.71282,1,0,4,4,4,1,stimuli/black_3.jpg,,a,,,,,,,,
,,,,,,,,,,,,,Dana,1,001,female,2020-08-30_15h04.55.894,openIAT,2020.1.0rc3,Win32,60,a,1,0.652445,,,,,,,,0.652445,1,0,5,5,8,1,stimuli/black_5.jpg,,a,,,,,,,,
,,,,,,,,,,,,,Dana,1,001,female,2020-08-30_15h04.55.894,openIAT,2020.1.0rc3,Win32,60,l,1,0.97235,,,,,,,,0.97235,1,0,6,6,1,1,stimuli/white_1.jpg,,l,,,,,,,,
,,,,,,,,,,,,,Dana,1,001,female,2020-08-30_15h04.55.894,openIAT,2020.1.0rc3,Win32,60,l,1,0.84119,,,,,,,,0.84119,1,0,7,7,7,1,stimuli/white_4.jpg,,l,,,,,,,,
,,,,,,,,,,,,,Dana,1,001,female,2020-08-30_15h04.55.894,openIAT,2020.1.0rc3,Win32,60,a,1,0.654725,,,,,,,,0.654725,1,0,8,8,6,1,stimuli/black_4.jpg,,a,,,,,,,,
,,,,,,,,,,,,,Dana,1,001,female,2020-08-30_15h04.55.894,openIAT,2020.1.0rc3,Win32,60,a,1,0.650935,,,,,,,,0.650935,1,0,9,9,2,1,stimuli/black_2.jpg,,a,,,,,,,,
,,,,,,,,,,,,,Dana,1,001,female,2020-08-30_15h04.55.894,openIAT,2020.1.0rc3,Win32,60,,,,,,,,,,,,,,,,,,,,,0,3,3,3,1,incong_train.xlsx,"A = 
Black","L = 
White"
,,,,,,,,,,,,,Dana,1,001,female,2020-08-30_15h04.55.894,openIAT,2020.1.0rc3,Win32,60,l,1,1.586445,,,,,,,,1.586445,1,0,0,0,3,1,stimuli/white_2.jpg,,l,,,,,,,,
,,,,,,,,,,,,,Dana,1,001,female,2020-08-30_15h04.55.894,openIAT,2020.1.0rc3,Win32,60,l,1,2.92779,,,,,,,,2.92779,1,0,1,1,15,1,stimuli/blank.png,Agony,l,,,,,,,,
,,,,,,,,,,,,,Dana,1,001,female,2020-08-30_15h04.55.894,openIAT,2020.1.0rc3,Win32,60,l,1,1.05484,,,,,,,,1.05484,1,0,2,2,13,1,stimuli/blank.png,Hurt,l,,,,,,,,
,,,,,,,,,,,,,Dana,1,001,female,2020-08-30_15h04.55.894,openIAT,2020.1.0rc3,Win32,60,l,1,1.904085,,,,,,,,1.904085,1,0,3,3,1,1,stimuli/white_1.jpg,,l,,,,,,,,
,,,,,,,,,,,,,Dana,1,001,female,2020-08-30_15h04.55.894,openIAT,2020.1.0rc3,Win32,60,a,1,0.86168,,,,,,,,0.86168,1,0,4,4,10,1,stimuli/blank.png,Good,a,,,,,,,,
,,,,,,,,,,,,,Dana,1,001,female,2020-08-30_15h04.55.894,openIAT,2020.1.0rc3,Win32,60,a,1,0.561625,,,,,,,,0.561625,1,0,5,5,6,1,stimuli/black_4.jpg,,a,,,,,,,,
,,,,,,,,,,,,,Dana,1,001,female,2020-08-30_15h04.55.894,openIAT,2020.1.0rc3,Win32,60,l,1,0.85942,,,,,,,,0.85942,1,0,6,6,17,1,stimuli/blank.png,Evil,l,,,,,,,,
,,,,,,,,,,,,,Dana,1,001,female,2020-08-30_15h04.55.894,openIAT,2020.1.0rc3,Win32,60,a,1,0.95336,,,,,,,,0.95336,1,0,7,7,18,1,stimuli/blank.png,Joy,a,,,,,,,,
,,,,,,,,,,,,,Dana,1,001,female,2020-08-30_15h04.55.894,openIAT,2020.1.0rc3,Win32,60,l,0,1.837685,,,,,,,,1.837685,0,0,8,8,14,1,stimuli/blank.png,Pleasure,a,,,,,,,,
,,,,,,,,,,,,,Dana,1,001,female,2020-08-30_15h04.55.894,openIAT,2020.1.0rc3,Win32,60,l,1,1.93106,,,,,,,,1.93106,1,0,9,9,9,1,stimuli/white_5.jpg,,l,,,,,,,,
,,,,,,,,,,,,,Dana,1,001,female,2020-08-30_15h04.55.894,openIAT,2020.1.0rc3,Win32,60,a,1,1.036465,,,,,,,,1.036465,1,0,10,10,2,1,stimuli/black_2.jpg,,a,,,,,,,,
,,,,,,,,,,,,,Dana,1,001,female,2020-08-30_15h04.55.894,openIAT,2020.1.0rc3,Win32,60,a,1,0.67678,,,,,,,,0.67678,1,0,11,11,0,1,stimuli/black_1.jpg,,a,,,,,,,,
,,,,,,,,,,,,,Dana,1,001,female,2020-08-30_15h04.55.894,openIAT,2020.1.0rc3,Win32,60,l,1,1.005305,,,,,,,,1.005305,1,0,12,12,5,1,stimuli/white_3.jpg,,l,,,,,,,,
,,,,,,,,,,,,,Dana,1,001,female,2020-08-30_15h04.55.894,openIAT,2020.1.0rc3,Win32,60,l,1,0.8356,,,,,,,,0.8356,1,0,13,13,7,1,stimuli/white_4.jpg,,l,,,,,,,,
,,,,,,,,,,,,,Dana,1,001,female,2020-08-30_15h04.55.894,openIAT,2020.1.0rc3,Win32,60,a,1,0.821435,,,,,,,,0.821435,1,0,14,14,16,1,stimuli/blank.png,Love,a,,,,,,,,
,,,,,,,,,,,,,Dana,1,001,female,2020-08-30_15h04.55.894,openIAT,2020.1.0rc3,Win32,60,a,1,1.37782,,,,,,,,1.37782,1,0,15,15,4,1,stimuli/black_3.jpg,,a,,,,,,,,
,,,,,,,,,,,,,Dana,1,001,female,2020-08-30_15h04.55.894,openIAT,2020.1.0rc3,Win32,60,l,1,0.937185,,,,,,,,0.937185,1,0,16,16,11,1,stimuli/blank.png,Bad,l,,,,,,,,
,,,,,,,,,,,,,Dana,1,001,female,2020-08-30_15h04.55.894,openIAT,2020.1.0rc3,Win32,60,l,1,0.990955,,,,,,,,0.990955,1,0,17,17,19,1,stimuli/blank.png,Nasty,l,,,,,,,,
,,,,,,,,,,,,,Dana,1,001,female,2020-08-30_15h04.55.894,openIAT,2020.1.0rc3,Win32,60,a,1,0.7539,,,,,,,,0.7539,1,0,18,18,8,1,stimuli/black_5.jpg,,a,,,,,,,,
,,,,,,,,,,,,,Dana,1,001,female,2020-08-30_15h04.55.894,openIAT,2020.1.0rc3,Win32,60,a,1,0.913075,,,,,,,,0.913075,1,0,19,19,12,1,stimuli/blank.png,Happy,a,,,,,,,,
