instr_done_touch.x,instr_done_touch.y,instr_done_touch.leftButton,instr_done_touch.midButton,instr_done_touch.rightButton,instruct_pages.thisRepN,instruct_pages.thisTrialN,instruct_pages.thisN,instruct_pages.thisIndex,instruct_pages.ran,pageN,instruct_text,participant,order,session,gender,date,expName,psychopyVersion,OS,frameRate,key_resp.keys,key_resp.corr,key_resp.rt,touch_resp.x,touch_resp.y,touch_resp.leftButton,touch_resp.midButton,touch_resp.rightButton,touch_resp.time,touch_resp.clicked_name,rt,corr,trials.thisRepN,trials.thisTrialN,trials.thisN,trials.thisIndex,trials.ran,stimImage,stimWord,CorrAns,blocks.thisRepN,blocks.thisTrialN,blocks.thisN,blocks.thisIndex,blocks.ran,conds_file,label_left,label_right
0.137962963,-0.365740741,0,0,0,0,0,0,0,1,1,"You will be presented with words or images to classify into categories using either the 'A' or 'L' key. 
 
Try to go as fast as possible while making as few mistakes as possible. 
",David,1,001,male,2022-04-27_16h05.15.825,openIAT,2020.1.0rc3,Win32,60,,,,,,,,,,,,,,,,,,,,,,,,,,,,
0.137962963,-0.365740741,0,0,0,0,1,1,1,1,2,"Keep in mind: 
 
1) Labels at the top of the screen indicate which catogory goes with which key. 
 
2) Each word or image has a correct catogory classification 
 
3) Keep your index fingers on the A and L keys to enable a rapid response. 
 
4) The test gives no results if you go slow- please try to go as fast as possible 
",David,1,001,male,2022-04-27_16h05.15.825,openIAT,2020.1.0rc3,Win32,60,,,,,,,,,,,,,,,,,,,,,,,,,,,,
,,,,,,,,,,,,David,1,001,male,2022-04-27_16h05.15.825,openIAT,2020.1.0rc3,Win32,60,l,1,1.0295,,,,,,,,1.0295,1,0,0,0,9,1,stimuli/blank.png,Nasty,l,,,,,,,,
,,,,,,,,,,,,David,1,001,male,2022-04-27_16h05.15.825,openIAT,2020.1.0rc3,Win32,60,l,1,0.6948,,,,,,,,0.6948,1,0,1,1,3,1,stimuli/blank.png,Hurt,l,,,,,,,,
,,,,,,,,,,,,David,1,001,male,2022-04-27_16h05.15.825,openIAT,2020.1.0rc3,Win32,60,l,1,0.6682,,,,,,,,0.6682,1,0,2,2,5,1,stimuli/blank.png,Agony,l,,,,,,,,
,,,,,,,,,,,,David,1,001,male,2022-04-27_16h05.15.825,openIAT,2020.1.0rc3,Win32,60,a,1,0.6014,,,,,,,,0.6014,1,0,3,3,8,1,stimuli/blank.png,Joy,a,,,,,,,,
,,,,,,,,,,,,David,1,001,male,2022-04-27_16h05.15.825,openIAT,2020.1.0rc3,Win32,60,a,1,0.6356,,,,,,,,0.6356,1,0,4,4,4,1,stimuli/blank.png,Pleasure,a,,,,,,,,
,,,,,,,,,,,,David,1,001,male,2022-04-27_16h05.15.825,openIAT,2020.1.0rc3,Win32,60,l,1,0.5713,,,,,,,,0.5713,1,0,5,5,7,1,stimuli/blank.png,Evil,l,,,,,,,,
,,,,,,,,,,,,David,1,001,male,2022-04-27_16h05.15.825,openIAT,2020.1.0rc3,Win32,60,a,1,0.5671,,,,,,,,0.5671,1,0,6,6,2,1,stimuli/blank.png,Happy,a,,,,,,,,
,,,,,,,,,,,,David,1,001,male,2022-04-27_16h05.15.825,openIAT,2020.1.0rc3,Win32,60,a,1,0.6758,,,,,,,,0.6758,1,0,7,7,6,1,stimuli/blank.png,Love,a,,,,,,,,
,,,,,,,,,,,,David,1,001,male,2022-04-27_16h05.15.825,openIAT,2020.1.0rc3,Win32,60,l,1,0.5536,,,,,,,,0.5536,1,0,8,8,1,1,stimuli/blank.png,Bad,l,,,,,,,,
,,,,,,,,,,,,David,1,001,male,2022-04-27_16h05.15.825,openIAT,2020.1.0rc3,Win32,60,a,1,0.534,,,,,,,,0.534,1,0,9,9,0,1,stimuli/blank.png,Good,a,,,,,,,,
,,,,,,,,,,,,David,1,001,male,2022-04-27_16h05.15.825,openIAT,2020.1.0rc3,Win32,60,,,,,,,,,,,,,,,,,,,,,0,0,0,0,1,pos_neg_train.xlsx,"A = 
Positive","L = 
Negative"
,,,,,,,,,,,,David,1,001,male,2022-04-27_16h05.15.825,openIAT,2020.1.0rc3,Win32,60,l,1,0.5583,,,,,,,,0.5583,1,0,0,0,4,1,stimuli/black_3.jpg,NaN,l,,,,,,,,
,,,,,,,,,,,,David,1,001,male,2022-04-27_16h05.15.825,openIAT,2020.1.0rc3,Win32,60,a,1,0.537,,,,,,,,0.537,1,0,1,1,3,1,stimuli/white_2.jpg,NaN,a,,,,,,,,
,,,,,,,,,,,,David,1,001,male,2022-04-27_16h05.15.825,openIAT,2020.1.0rc3,Win32,60,l,1,0.5354,,,,,,,,0.5354,1,0,2,2,6,1,stimuli/black_4.jpg,NaN,l,,,,,,,,
,,,,,,,,,,,,David,1,001,male,2022-04-27_16h05.15.825,openIAT,2020.1.0rc3,Win32,60,l,1,0.7187,,,,,,,,0.7187,1,0,3,3,0,1,stimuli/black_1.jpg,NaN,l,,,,,,,,
,,,,,,,,,,,,David,1,001,male,2022-04-27_16h05.15.825,openIAT,2020.1.0rc3,Win32,60,l,1,0.6012,,,,,,,,0.6012,1,0,4,4,8,1,stimuli/black_5.jpg,NaN,l,,,,,,,,
,,,,,,,,,,,,David,1,001,male,2022-04-27_16h05.15.825,openIAT,2020.1.0rc3,Win32,60,a,1,0.5165,,,,,,,,0.5165,1,0,5,5,5,1,stimuli/white_3.jpg,NaN,a,,,,,,,,
,,,,,,,,,,,,David,1,001,male,2022-04-27_16h05.15.825,openIAT,2020.1.0rc3,Win32,60,a,1,0.5003,,,,,,,,0.5003,1,0,6,6,7,1,stimuli/white_4.jpg,NaN,a,,,,,,,,
,,,,,,,,,,,,David,1,001,male,2022-04-27_16h05.15.825,openIAT,2020.1.0rc3,Win32,60,a,1,0.5505,,,,,,,,0.5505,1,0,7,7,1,1,stimuli/white_1.jpg,NaN,a,,,,,,,,
,,,,,,,,,,,,David,1,001,male,2022-04-27_16h05.15.825,openIAT,2020.1.0rc3,Win32,60,l,1,0.7335,,,,,,,,0.7335,1,0,8,8,2,1,stimuli/black_2.jpg,NaN,l,,,,,,,,
,,,,,,,,,,,,David,1,001,male,2022-04-27_16h05.15.825,openIAT,2020.1.0rc3,Win32,60,a,1,0.7183,,,,,,,,0.7183,1,0,9,9,9,1,stimuli/white_5.jpg,NaN,a,,,,,,,,
,,,,,,,,,,,,David,1,001,male,2022-04-27_16h05.15.825,openIAT,2020.1.0rc3,Win32,60,,,,,,,,,,,,,,,,,,,,,0,1,1,1,1,cong_train.xlsx,"A = 
White","L = 
Black"
,,,,,,,,,,,,David,1,001,male,2022-04-27_16h05.15.825,openIAT,2020.1.0rc3,Win32,60,a,1,0.6344,,,,,,,,0.6344,1,0,0,0,16,1,stimuli/blank.png,Love,a,,,,,,,,
,,,,,,,,,,,,David,1,001,male,2022-04-27_16h05.15.825,openIAT,2020.1.0rc3,Win32,60,l,1,0.7866,,,,,,,,0.7866,1,0,1,1,8,1,stimuli/black_5.jpg,NaN,l,,,,,,,,
,,,,,,,,,,,,David,1,001,male,2022-04-27_16h05.15.825,openIAT,2020.1.0rc3,Win32,60,l,1,0.6184,,,,,,,,0.6184,1,0,2,2,4,1,stimuli/black_3.jpg,NaN,l,,,,,,,,
,,,,,,,,,,,,David,1,001,male,2022-04-27_16h05.15.825,openIAT,2020.1.0rc3,Win32,60,l,1,0.5504,,,,,,,,0.5504,1,0,3,3,0,1,stimuli/black_1.jpg,NaN,l,,,,,,,,
,,,,,,,,,,,,David,1,001,male,2022-04-27_16h05.15.825,openIAT,2020.1.0rc3,Win32,60,l,1,0.6836,,,,,,,,0.6836,1,0,4,4,13,1,stimuli/blank.png,Hurt,l,,,,,,,,
,,,,,,,,,,,,David,1,001,male,2022-04-27_16h05.15.825,openIAT,2020.1.0rc3,Win32,60,l,1,1.0349,,,,,,,,1.0349,1,0,5,5,2,1,stimuli/black_2.jpg,NaN,l,,,,,,,,
,,,,,,,,,,,,David,1,001,male,2022-04-27_16h05.15.825,openIAT,2020.1.0rc3,Win32,60,a,1,0.7824,,,,,,,,0.7824,1,0,6,6,3,1,stimuli/white_2.jpg,NaN,a,,,,,,,,
,,,,,,,,,,,,David,1,001,male,2022-04-27_16h05.15.825,openIAT,2020.1.0rc3,Win32,60,a,1,0.534,,,,,,,,0.534,1,0,7,7,10,1,stimuli/blank.png,Good,a,,,,,,,,
,,,,,,,,,,,,David,1,001,male,2022-04-27_16h05.15.825,openIAT,2020.1.0rc3,Win32,60,a,1,0.6007,,,,,,,,0.6007,1,0,8,8,18,1,stimuli/blank.png,Joy,a,,,,,,,,
,,,,,,,,,,,,David,1,001,male,2022-04-27_16h05.15.825,openIAT,2020.1.0rc3,Win32,60,a,1,0.8512,,,,,,,,0.8512,1,0,9,9,1,1,stimuli/white_1.jpg,NaN,a,,,,,,,,
,,,,,,,,,,,,David,1,001,male,2022-04-27_16h05.15.825,openIAT,2020.1.0rc3,Win32,60,a,1,0.618,,,,,,,,0.618,1,0,10,10,12,1,stimuli/blank.png,Happy,a,,,,,,,,
,,,,,,,,,,,,David,1,001,male,2022-04-27_16h05.15.825,openIAT,2020.1.0rc3,Win32,60,l,1,0.6681,,,,,,,,0.6681,1,0,11,11,19,1,stimuli/blank.png,Nasty,l,,,,,,,,
,,,,,,,,,,,,David,1,001,male,2022-04-27_16h05.15.825,openIAT,2020.1.0rc3,Win32,60,l,1,0.6981,,,,,,,,0.6981,1,0,12,12,11,1,stimuli/blank.png,Bad,l,,,,,,,,
,,,,,,,,,,,,David,1,001,male,2022-04-27_16h05.15.825,openIAT,2020.1.0rc3,Win32,60,l,1,1.0513,,,,,,,,1.0513,1,0,13,13,15,1,stimuli/blank.png,Agony,l,,,,,,,,
,,,,,,,,,,,,David,1,001,male,2022-04-27_16h05.15.825,openIAT,2020.1.0rc3,Win32,60,a,1,0.801,,,,,,,,0.801,1,0,14,14,14,1,stimuli/blank.png,Pleasure,a,,,,,,,,
,,,,,,,,,,,,David,1,001,male,2022-04-27_16h05.15.825,openIAT,2020.1.0rc3,Win32,60,a,1,0.7843,,,,,,,,0.7843,1,0,15,15,5,1,stimuli/white_3.jpg,NaN,a,,,,,,,,
,,,,,,,,,,,,David,1,001,male,2022-04-27_16h05.15.825,openIAT,2020.1.0rc3,Win32,60,a,1,0.7995,,,,,,,,0.7995,1,0,16,16,7,1,stimuli/white_4.jpg,NaN,a,,,,,,,,
,,,,,,,,,,,,David,1,001,male,2022-04-27_16h05.15.825,openIAT,2020.1.0rc3,Win32,60,l,1,0.6678,,,,,,,,0.6678,1,0,17,17,17,1,stimuli/blank.png,Evil,l,,,,,,,,
,,,,,,,,,,,,David,1,001,male,2022-04-27_16h05.15.825,openIAT,2020.1.0rc3,Win32,60,a,1,0.6506,,,,,,,,0.6506,1,0,18,18,9,1,stimuli/white_5.jpg,NaN,a,,,,,,,,
,,,,,,,,,,,,David,1,001,male,2022-04-27_16h05.15.825,openIAT,2020.1.0rc3,Win32,60,l,1,0.5992,,,,,,,,0.5992,1,0,19,19,6,1,stimuli/black_4.jpg,NaN,l,,,,,,,,
,,,,,,,,,,,,David,1,001,male,2022-04-27_16h05.15.825,openIAT,2020.1.0rc3,Win32,60,,,,,,,,,,,,,,,,,,,,,0,2,2,2,1,cong_test.xlsx,"A = 
White or 
Positive","L = 
Black or 
Negative"
,,,,,,,,,,,,David,1,001,male,2022-04-27_16h05.15.825,openIAT,2020.1.0rc3,Win32,60,l,1,0.6449,,,,,,,,0.6449,1,0,0,0,7,1,stimuli/white_4.jpg,,l,,,,,,,,
,,,,,,,,,,,,David,1,001,male,2022-04-27_16h05.15.825,openIAT,2020.1.0rc3,Win32,60,a,1,0.4649,,,,,,,,0.4649,1,0,1,1,8,1,stimuli/black_5.jpg,,a,,,,,,,,
,,,,,,,,,,,,David,1,001,male,2022-04-27_16h05.15.825,openIAT,2020.1.0rc3,Win32,60,l,1,0.5687,,,,,,,,0.5687,1,0,2,2,5,1,stimuli/white_3.jpg,,l,,,,,,,,
,,,,,,,,,,,,David,1,001,male,2022-04-27_16h05.15.825,openIAT,2020.1.0rc3,Win32,60,a,1,0.5949,,,,,,,,0.5949,1,0,3,3,6,1,stimuli/black_4.jpg,,a,,,,,,,,
,,,,,,,,,,,,David,1,001,male,2022-04-27_16h05.15.825,openIAT,2020.1.0rc3,Win32,60,a,1,0.5946,,,,,,,,0.5946,1,0,4,4,2,1,stimuli/black_2.jpg,,a,,,,,,,,
,,,,,,,,,,,,David,1,001,male,2022-04-27_16h05.15.825,openIAT,2020.1.0rc3,Win32,60,a,1,0.5345,,,,,,,,0.5345,1,0,5,5,0,1,stimuli/black_1.jpg,,a,,,,,,,,
,,,,,,,,,,,,David,1,001,male,2022-04-27_16h05.15.825,openIAT,2020.1.0rc3,Win32,60,l,1,0.5674,,,,,,,,0.5674,1,0,6,6,9,1,stimuli/white_5.jpg,,l,,,,,,,,
,,,,,,,,,,,,David,1,001,male,2022-04-27_16h05.15.825,openIAT,2020.1.0rc3,Win32,60,l,1,0.5846,,,,,,,,0.5846,1,0,7,7,1,1,stimuli/white_1.jpg,,l,,,,,,,,
,,,,,,,,,,,,David,1,001,male,2022-04-27_16h05.15.825,openIAT,2020.1.0rc3,Win32,60,l,1,0.6517,,,,,,,,0.6517,1,0,8,8,3,1,stimuli/white_2.jpg,,l,,,,,,,,
,,,,,,,,,,,,David,1,001,male,2022-04-27_16h05.15.825,openIAT,2020.1.0rc3,Win32,60,a,1,0.5174,,,,,,,,0.5174,1,0,9,9,4,1,stimuli/black_3.jpg,,a,,,,,,,,
,,,,,,,,,,,,David,1,001,male,2022-04-27_16h05.15.825,openIAT,2020.1.0rc3,Win32,60,,,,,,,,,,,,,,,,,,,,,0,3,3,3,1,incong_train.xlsx,"A = 
Black","L = 
White"
,,,,,,,,,,,,David,1,001,male,2022-04-27_16h05.15.825,openIAT,2020.1.0rc3,Win32,60,l,1,1.0016,,,,,,,,1.0016,1,0,0,0,11,1,stimuli/blank.png,Bad,l,,,,,,,,
,,,,,,,,,,,,David,1,001,male,2022-04-27_16h05.15.825,openIAT,2020.1.0rc3,Win32,60,a,1,0.6344,,,,,,,,0.6344,1,0,1,1,0,1,stimuli/black_1.jpg,,a,,,,,,,,
,,,,,,,,,,,,David,1,001,male,2022-04-27_16h05.15.825,openIAT,2020.1.0rc3,Win32,60,a,1,0.518,,,,,,,,0.518,1,0,2,2,12,1,stimuli/blank.png,Happy,a,,,,,,,,
,,,,,,,,,,,,David,1,001,male,2022-04-27_16h05.15.825,openIAT,2020.1.0rc3,Win32,60,a,1,0.6341,,,,,,,,0.6341,1,0,3,3,2,1,stimuli/black_2.jpg,,a,,,,,,,,
,,,,,,,,,,,,David,1,001,male,2022-04-27_16h05.15.825,openIAT,2020.1.0rc3,Win32,60,l,1,0.6338,,,,,,,,0.6338,1,0,4,4,7,1,stimuli/white_4.jpg,,l,,,,,,,,
,,,,,,,,,,,,David,1,001,male,2022-04-27_16h05.15.825,openIAT,2020.1.0rc3,Win32,60,l,1,0.7845,,,,,,,,0.7845,1,0,5,5,9,1,stimuli/white_5.jpg,,l,,,,,,,,
,,,,,,,,,,,,David,1,001,male,2022-04-27_16h05.15.825,openIAT,2020.1.0rc3,Win32,60,a,1,1.0868,,,,,,,,1.0868,1,0,6,6,16,1,stimuli/blank.png,Love,a,,,,,,,,
,,,,,,,,,,,,David,1,001,male,2022-04-27_16h05.15.825,openIAT,2020.1.0rc3,Win32,60,l,1,1.0347,,,,,,,,1.0347,1,0,7,7,1,1,stimuli/white_1.jpg,,l,,,,,,,,
,,,,,,,,,,,,David,1,001,male,2022-04-27_16h05.15.825,openIAT,2020.1.0rc3,Win32,60,l,1,1.2513,,,,,,,,1.2513,1,0,8,8,13,1,stimuli/blank.png,Hurt,l,,,,,,,,
,,,,,,,,,,,,David,1,001,male,2022-04-27_16h05.15.825,openIAT,2020.1.0rc3,Win32,60,l,1,1.0863,,,,,,,,1.0863,1,0,9,9,17,1,stimuli/blank.png,Evil,l,,,,,,,,
,,,,,,,,,,,,David,1,001,male,2022-04-27_16h05.15.825,openIAT,2020.1.0rc3,Win32,60,l,1,1.0517,,,,,,,,1.0517,1,0,10,10,15,1,stimuli/blank.png,Agony,l,,,,,,,,
,,,,,,,,,,,,David,1,001,male,2022-04-27_16h05.15.825,openIAT,2020.1.0rc3,Win32,60,a,1,1.0192,,,,,,,,1.0192,1,0,11,11,10,1,stimuli/blank.png,Good,a,,,,,,,,
,,,,,,,,,,,,David,1,001,male,2022-04-27_16h05.15.825,openIAT,2020.1.0rc3,Win32,60,a,1,0.6342,,,,,,,,0.6342,1,0,12,12,6,1,stimuli/black_4.jpg,,a,,,,,,,,
,,,,,,,,,,,,David,1,001,male,2022-04-27_16h05.15.825,openIAT,2020.1.0rc3,Win32,60,a,1,0.5635,,,,,,,,0.5635,1,0,13,13,8,1,stimuli/black_5.jpg,,a,,,,,,,,
,,,,,,,,,,,,David,1,001,male,2022-04-27_16h05.15.825,openIAT,2020.1.0rc3,Win32,60,l,1,0.7349,,,,,,,,0.7349,1,0,14,14,5,1,stimuli/white_3.jpg,,l,,,,,,,,
,,,,,,,,,,,,David,1,001,male,2022-04-27_16h05.15.825,openIAT,2020.1.0rc3,Win32,60,a,1,1.1684,,,,,,,,1.1684,1,0,15,15,18,1,stimuli/blank.png,Joy,a,,,,,,,,
,,,,,,,,,,,,David,1,001,male,2022-04-27_16h05.15.825,openIAT,2020.1.0rc3,Win32,60,a,1,0.6848,,,,,,,,0.6848,1,0,16,16,4,1,stimuli/black_3.jpg,,a,,,,,,,,
,,,,,,,,,,,,David,1,001,male,2022-04-27_16h05.15.825,openIAT,2020.1.0rc3,Win32,60,l,1,0.8179,,,,,,,,0.8179,1,0,17,17,19,1,stimuli/blank.png,Nasty,l,,,,,,,,
,,,,,,,,,,,,David,1,001,male,2022-04-27_16h05.15.825,openIAT,2020.1.0rc3,Win32,60,l,1,0.9008,,,,,,,,0.9008,1,0,18,18,3,1,stimuli/white_2.jpg,,l,,,,,,,,
,,,,,,,,,,,,David,1,001,male,2022-04-27_16h05.15.825,openIAT,2020.1.0rc3,Win32,60,a,1,1.0315,,,,,,,,1.0315,1,0,19,19,14,1,stimuli/blank.png,Pleasure,a,,,,,,,,
