instr_done_touch.x,instr_done_touch.y,instr_done_touch.leftButton,instr_done_touch.midButton,instr_done_touch.rightButton,instr_done_touch.clicked_name,instruct_pages.thisRepN,instruct_pages.thisTrialN,instruct_pages.thisN,instruct_pages.thisIndex,instruct_pages.ran,pageN,instruct_text,participant,order,session,gender,date,expName,psychopyVersion,OS,frameRate,key_resp.keys,key_resp.corr,key_resp.rt,touch_resp.x,touch_resp.y,touch_resp.leftButton,touch_resp.midButton,touch_resp.rightButton,touch_resp.time,touch_resp.clicked_name,rt,corr,trials.thisRepN,trials.thisTrialN,trials.thisN,trials.thisIndex,trials.ran,stimImage,stimWord,CorrAns,blocks.thisRepN,blocks.thisTrialN,blocks.thisN,blocks.thisIndex,blocks.ran,conds_file,label_left,label_right
0.061111097,-0.387037065,1,0,0,instr_done_button,0,0,0,0,1,1,"You will be presented with words or images to classify into categories using either the 'A' or 'L' key. 
 
Try to go as fast as possible while making as few mistakes as possible. 
",daw,2,001,male,2022-11-26_22h21.50.318,openIAT,2020.1.0rc3,Win32,60,,,,,,,,,,,,,,,,,,,,,,,,,,,,
-0.087037051,-0.362963005,1,0,0,instr_done_button,0,1,1,1,1,2,"Keep in mind: 
 
1) Labels at the top of the screen indicate which catogory goes with which key. 
 
2) Each word or image has a correct catogory classification 
 
3) Keep your index fingers on the A and L keys to enable a rapid response. 
 
4) The test gives no results if you go slow- please try to go as fast as possible 
",daw,2,001,male,2022-11-26_22h21.50.318,openIAT,2020.1.0rc3,Win32,60,,,,,,,,,,,,,,,,,,,,,,,,,,,,
,,,,,,,,,,,,,daw,2,001,male,2022-11-26_22h21.50.318,openIAT,2020.1.0rc3,Win32,60,a,1,1.492,,,,,,,,1.492,1,0,0,0,4,1,stimuli/blank.png,Pleasure,a,,,,,,,,
,,,,,,,,,,,,,daw,2,001,male,2022-11-26_22h21.50.318,openIAT,2020.1.0rc3,Win32,60,a,1,1.1384,,,,,,,,1.1384,1,0,1,1,8,1,stimuli/blank.png,Joy,a,,,,,,,,
,,,,,,,,,,,,,daw,2,001,male,2022-11-26_22h21.50.318,openIAT,2020.1.0rc3,Win32,60,l,1,1.2335,,,,,,,,1.2335,1,0,2,2,3,1,stimuli/blank.png,Hurt,l,,,,,,,,
,,,,,,,,,,,,,daw,2,001,male,2022-11-26_22h21.50.318,openIAT,2020.1.0rc3,Win32,60,l,1,0.3012,,,,,,,,0.3012,1,0,3,3,7,1,stimuli/blank.png,Evil,l,,,,,,,,
,,,,,,,,,,,,,daw,2,001,male,2022-11-26_22h21.50.318,openIAT,2020.1.0rc3,Win32,60,l,0,0.3505,,,,,,,,0.3505,0,0,4,4,2,1,stimuli/blank.png,Happy,a,,,,,,,,
,,,,,,,,,,,,,daw,2,001,male,2022-11-26_22h21.50.318,openIAT,2020.1.0rc3,Win32,60,l,0,0.7007,,,,,,,,0.7007,0,0,5,5,0,1,stimuli/blank.png,Good,a,,,,,,,,
,,,,,,,,,,,,,daw,2,001,male,2022-11-26_22h21.50.318,openIAT,2020.1.0rc3,Win32,60,l,1,0.4843,,,,,,,,0.4843,1,0,6,6,1,1,stimuli/blank.png,Bad,l,,,,,,,,
,,,,,,,,,,,,,daw,2,001,male,2022-11-26_22h21.50.318,openIAT,2020.1.0rc3,Win32,60,l,1,0.3366,,,,,,,,0.3366,1,0,7,7,9,1,stimuli/blank.png,Nasty,l,,,,,,,,
,,,,,,,,,,,,,daw,2,001,male,2022-11-26_22h21.50.318,openIAT,2020.1.0rc3,Win32,60,l,1,0.2668,,,,,,,,0.2668,1,0,8,8,5,1,stimuli/blank.png,Agony,l,,,,,,,,
,,,,,,,,,,,,,daw,2,001,male,2022-11-26_22h21.50.318,openIAT,2020.1.0rc3,Win32,60,l,0,0.2244,,,,,,,,0.2244,0,0,9,9,6,1,stimuli/blank.png,Love,a,,,,,,,,
,,,,,,,,,,,,,daw,2,001,male,2022-11-26_22h21.50.318,openIAT,2020.1.0rc3,Win32,60,,,,,,,,,,,,,,,,,,,,,0,0,0,0,1,pos_neg_train.xlsx,"A = 
Positive","L = 
Negative"
,,,,,,,,,,,,,daw,2,001,male,2022-11-26_22h21.50.318,openIAT,2020.1.0rc3,Win32,60,l,1,1.8829,,,,,,,,1.8829,1,0,0,0,9,1,stimuli/white_5.jpg,,l,,,,,,,,
,,,,,,,,,,,,,daw,2,001,male,2022-11-26_22h21.50.318,openIAT,2020.1.0rc3,Win32,60,a,1,3.6534,,,,,,,,3.6534,1,0,1,1,0,1,stimuli/black_1.jpg,,a,,,,,,,,
,,,,,,,,,,,,,daw,2,001,male,2022-11-26_22h21.50.318,openIAT,2020.1.0rc3,Win32,60,a,1,0.8347,,,,,,,,0.8347,1,0,2,2,4,1,stimuli/black_3.jpg,,a,,,,,,,,
,,,,,,,,,,,,,daw,2,001,male,2022-11-26_22h21.50.318,openIAT,2020.1.0rc3,Win32,60,l,1,0.917,,,,,,,,0.917,1,0,3,3,5,1,stimuli/white_3.jpg,,l,,,,,,,,
,,,,,,,,,,,,,daw,2,001,male,2022-11-26_22h21.50.318,openIAT,2020.1.0rc3,Win32,60,a,1,0.6507,,,,,,,,0.6507,1,0,4,4,6,1,stimuli/black_4.jpg,,a,,,,,,,,
,,,,,,,,,,,,,daw,2,001,male,2022-11-26_22h21.50.318,openIAT,2020.1.0rc3,Win32,60,l,1,0.6011,,,,,,,,0.6011,1,0,5,5,7,1,stimuli/white_4.jpg,,l,,,,,,,,
,,,,,,,,,,,,,daw,2,001,male,2022-11-26_22h21.50.318,openIAT,2020.1.0rc3,Win32,60,a,1,0.5344,,,,,,,,0.5344,1,0,6,6,8,1,stimuli/black_5.jpg,,a,,,,,,,,
,,,,,,,,,,,,,daw,2,001,male,2022-11-26_22h21.50.318,openIAT,2020.1.0rc3,Win32,60,l,1,1.0883,,,,,,,,1.0883,1,0,7,7,1,1,stimuli/white_1.jpg,,l,,,,,,,,
,,,,,,,,,,,,,daw,2,001,male,2022-11-26_22h21.50.318,openIAT,2020.1.0rc3,Win32,60,a,1,0.5839,,,,,,,,0.5839,1,0,8,8,2,1,stimuli/black_2.jpg,,a,,,,,,,,
,,,,,,,,,,,,,daw,2,001,male,2022-11-26_22h21.50.318,openIAT,2020.1.0rc3,Win32,60,l,1,0.5762,,,,,,,,0.5762,1,0,9,9,3,1,stimuli/white_2.jpg,,l,,,,,,,,
,,,,,,,,,,,,,daw,2,001,male,2022-11-26_22h21.50.318,openIAT,2020.1.0rc3,Win32,60,,,,,,,,,,,,,,,,,,,,,0,1,1,1,1,incong_train.xlsx,"A = 
Black","L = 
White"
,,,,,,,,,,,,,daw,2,001,male,2022-11-26_22h21.50.318,openIAT,2020.1.0rc3,Win32,60,a,1,5.3998,,,,,,,,5.3998,1,0,0,0,12,1,stimuli/blank.png,Happy,a,,,,,,,,
,,,,,,,,,,,,,daw,2,001,male,2022-11-26_22h21.50.318,openIAT,2020.1.0rc3,Win32,60,l,1,1.0007,,,,,,,,1.0007,1,0,1,1,15,1,stimuli/blank.png,Agony,l,,,,,,,,
,,,,,,,,,,,,,daw,2,001,male,2022-11-26_22h21.50.318,openIAT,2020.1.0rc3,Win32,60,a,1,1.0004,,,,,,,,1.0004,1,0,2,2,2,1,stimuli/black_2.jpg,,a,,,,,,,,
,,,,,,,,,,,,,daw,2,001,male,2022-11-26_22h21.50.318,openIAT,2020.1.0rc3,Win32,60,a,1,0.6505,,,,,,,,0.6505,1,0,3,3,10,1,stimuli/blank.png,Good,a,,,,,,,,
,,,,,,,,,,,,,daw,2,001,male,2022-11-26_22h21.50.318,openIAT,2020.1.0rc3,Win32,60,a,1,0.5829,,,,,,,,0.5829,1,0,4,4,18,1,stimuli/blank.png,Joy,a,,,,,,,,
,,,,,,,,,,,,,daw,2,001,male,2022-11-26_22h21.50.318,openIAT,2020.1.0rc3,Win32,60,l,1,0.6839,,,,,,,,0.6839,1,0,5,5,1,1,stimuli/white_1.jpg,,l,,,,,,,,
,,,,,,,,,,,,,daw,2,001,male,2022-11-26_22h21.50.318,openIAT,2020.1.0rc3,Win32,60,a,1,0.5385,,,,,,,,0.5385,1,0,6,6,4,1,stimuli/black_3.jpg,,a,,,,,,,,
,,,,,,,,,,,,,daw,2,001,male,2022-11-26_22h21.50.318,openIAT,2020.1.0rc3,Win32,60,a,1,0.6677,,,,,,,,0.6677,1,0,7,7,16,1,stimuli/blank.png,Love,a,,,,,,,,
,,,,,,,,,,,,,daw,2,001,male,2022-11-26_22h21.50.318,openIAT,2020.1.0rc3,Win32,60,a,1,0.6315,,,,,,,,0.6315,1,0,8,8,8,1,stimuli/black_5.jpg,,a,,,,,,,,
,,,,,,,,,,,,,daw,2,001,male,2022-11-26_22h21.50.318,openIAT,2020.1.0rc3,Win32,60,a,1,0.5482,,,,,,,,0.5482,1,0,9,9,0,1,stimuli/black_1.jpg,,a,,,,,,,,
,,,,,,,,,,,,,daw,2,001,male,2022-11-26_22h21.50.318,openIAT,2020.1.0rc3,Win32,60,l,1,0.6505,,,,,,,,0.6505,1,0,10,10,11,1,stimuli/blank.png,Bad,l,,,,,,,,
,,,,,,,,,,,,,daw,2,001,male,2022-11-26_22h21.50.318,openIAT,2020.1.0rc3,Win32,60,l,1,1.3834,,,,,,,,1.3834,1,0,11,11,17,1,stimuli/blank.png,Evil,l,,,,,,,,
,,,,,,,,,,,,,daw,2,001,male,2022-11-26_22h21.50.318,openIAT,2020.1.0rc3,Win32,60,l,1,0.8012,,,,,,,,0.8012,1,0,12,12,7,1,stimuli/white_4.jpg,,l,,,,,,,,
,,,,,,,,,,,,,daw,2,001,male,2022-11-26_22h21.50.318,openIAT,2020.1.0rc3,Win32,60,l,1,0.3676,,,,,,,,0.3676,1,0,13,13,9,1,stimuli/white_5.jpg,,l,,,,,,,,
,,,,,,,,,,,,,daw,2,001,male,2022-11-26_22h21.50.318,openIAT,2020.1.0rc3,Win32,60,l,1,0.4342,,,,,,,,0.4342,1,0,14,14,3,1,stimuli/white_2.jpg,,l,,,,,,,,
,,,,,,,,,,,,,daw,2,001,male,2022-11-26_22h21.50.318,openIAT,2020.1.0rc3,Win32,60,a,0,0.559,,,,,,,,0.559,0,0,15,15,19,1,stimuli/blank.png,Nasty,l,,,,,,,,
,,,,,,,,,,,,,daw,2,001,male,2022-11-26_22h21.50.318,openIAT,2020.1.0rc3,Win32,60,a,1,0.9002,,,,,,,,0.9002,1,0,16,16,14,1,stimuli/blank.png,Pleasure,a,,,,,,,,
,,,,,,,,,,,,,daw,2,001,male,2022-11-26_22h21.50.318,openIAT,2020.1.0rc3,Win32,60,l,1,0.7677,,,,,,,,0.7677,1,0,17,17,5,1,stimuli/white_3.jpg,,l,,,,,,,,
,,,,,,,,,,,,,daw,2,001,male,2022-11-26_22h21.50.318,openIAT,2020.1.0rc3,Win32,60,l,0,0.1338,,,,,,,,0.1338,0,0,18,18,6,1,stimuli/black_4.jpg,,a,,,,,,,,
,,,,,,,,,,,,,daw,2,001,male,2022-11-26_22h21.50.318,openIAT,2020.1.0rc3,Win32,60,l,1,0.2497,,,,,,,,0.2497,1,0,19,19,13,1,stimuli/blank.png,Hurt,l,,,,,,,,
,,,,,,,,,,,,,daw,2,001,male,2022-11-26_22h21.50.318,openIAT,2020.1.0rc3,Win32,60,,,,,,,,,,,,,,,,,,,,,0,2,2,2,1,incong_test.xlsx,"A = 
Black or 
Positive","L = 
White or 
Negative"
,,,,,,,,,,,,,daw,2,001,male,2022-11-26_22h21.50.318,openIAT,2020.1.0rc3,Win32,60,l,1,0.5008,,,,,,,,0.5008,1,0,0,0,2,1,stimuli/black_2.jpg,NaN,l,,,,,,,,
,,,,,,,,,,,,,daw,2,001,male,2022-11-26_22h21.50.318,openIAT,2020.1.0rc3,Win32,60,a,1,1.267,,,,,,,,1.267,1,0,1,1,1,1,stimuli/white_1.jpg,NaN,a,,,,,,,,
,,,,,,,,,,,,,daw,2,001,male,2022-11-26_22h21.50.318,openIAT,2020.1.0rc3,Win32,60,l,0,1.2057,,,,,,,,1.2057,0,0,2,2,5,1,stimuli/white_3.jpg,NaN,a,,,,,,,,
,,,,,,,,,,,,,daw,2,001,male,2022-11-26_22h21.50.318,openIAT,2020.1.0rc3,Win32,60,a,0,0.3178,,,,,,,,0.3178,0,0,3,3,4,1,stimuli/black_3.jpg,NaN,l,,,,,,,,
,,,,,,,,,,,,,daw,2,001,male,2022-11-26_22h21.50.318,openIAT,2020.1.0rc3,Win32,60,l,1,0.1182,,,,,,,,0.1182,1,0,4,4,8,1,stimuli/black_5.jpg,NaN,l,,,,,,,,
,,,,,,,,,,,,,daw,2,001,male,2022-11-26_22h21.50.318,openIAT,2020.1.0rc3,Win32,60,a,0,0.0156,,,,,,,,0.0156,0,0,5,5,6,1,stimuli/black_4.jpg,NaN,l,,,,,,,,
,,,,,,,,,,,,,daw,2,001,male,2022-11-26_22h21.50.318,openIAT,2020.1.0rc3,Win32,60,a,0,0.0677,,,,,,,,0.0677,0,0,6,6,0,1,stimuli/black_1.jpg,NaN,l,,,,,,,,
,,,,,,,,,,,,,daw,2,001,male,2022-11-26_22h21.50.318,openIAT,2020.1.0rc3,Win32,60,l,0,0.1001,,,,,,,,0.1001,0,0,7,7,7,1,stimuli/white_4.jpg,NaN,a,,,,,,,,
,,,,,,,,,,,,,daw,2,001,male,2022-11-26_22h21.50.318,openIAT,2020.1.0rc3,Win32,60,a,1,0.1416,,,,,,,,0.1416,1,0,8,8,9,1,stimuli/white_5.jpg,NaN,a,,,,,,,,
,,,,,,,,,,,,,daw,2,001,male,2022-11-26_22h21.50.318,openIAT,2020.1.0rc3,Win32,60,l,0,0.0222,,,,,,,,0.0222,0,0,9,9,3,1,stimuli/white_2.jpg,NaN,a,,,,,,,,
,,,,,,,,,,,,,daw,2,001,male,2022-11-26_22h21.50.318,openIAT,2020.1.0rc3,Win32,60,,,,,,,,,,,,,,,,,,,,,0,3,3,3,1,cong_train.xlsx,"A = 
White","L = 
Black"
,,,,,,,,,,,,,daw,2,001,male,2022-11-26_22h21.50.318,openIAT,2020.1.0rc3,Win32,60,a,0,0.134,,,,,,,,0.134,0,0,0,0,13,1,stimuli/blank.png,Hurt,l,,,,,,,,
,,,,,,,,,,,,,daw,2,001,male,2022-11-26_22h21.50.318,openIAT,2020.1.0rc3,Win32,60,a,1,0.1678,,,,,,,,0.1678,1,0,1,1,18,1,stimuli/blank.png,Joy,a,,,,,,,,
,,,,,,,,,,,,,daw,2,001,male,2022-11-26_22h21.50.318,openIAT,2020.1.0rc3,Win32,60,a,0,0.2129,,,,,,,,0.2129,0,0,2,2,15,1,stimuli/blank.png,Agony,l,,,,,,,,
,,,,,,,,,,,,,daw,2,001,male,2022-11-26_22h21.50.318,openIAT,2020.1.0rc3,Win32,60,a,0,0.0911,,,,,,,,0.0911,0,0,3,3,2,1,stimuli/black_2.jpg,NaN,l,,,,,,,,
,,,,,,,,,,,,,daw,2,001,male,2022-11-26_22h21.50.318,openIAT,2020.1.0rc3,Win32,60,a,1,0.3748,,,,,,,,0.3748,1,0,4,4,5,1,stimuli/white_3.jpg,NaN,a,,,,,,,,
,,,,,,,,,,,,,daw,2,001,male,2022-11-26_22h21.50.318,openIAT,2020.1.0rc3,Win32,60,l,0,0.1843,,,,,,,,0.1843,0,0,5,5,1,1,stimuli/white_1.jpg,NaN,a,,,,,,,,
,,,,,,,,,,,,,daw,2,001,male,2022-11-26_22h21.50.318,openIAT,2020.1.0rc3,Win32,60,a,0,0.1344,,,,,,,,0.1344,0,0,6,6,8,1,stimuli/black_5.jpg,NaN,l,,,,,,,,
,,,,,,,,,,,,,daw,2,001,male,2022-11-26_22h21.50.318,openIAT,2020.1.0rc3,Win32,60,a,0,0.117,,,,,,,,0.117,0,0,7,7,11,1,stimuli/blank.png,Bad,l,,,,,,,,
,,,,,,,,,,,,,daw,2,001,male,2022-11-26_22h21.50.318,openIAT,2020.1.0rc3,Win32,60,a,0,0.2331,,,,,,,,0.2331,0,0,8,8,0,1,stimuli/black_1.jpg,NaN,l,,,,,,,,
,,,,,,,,,,,,,daw,2,001,male,2022-11-26_22h21.50.318,openIAT,2020.1.0rc3,Win32,60,l,0,0.0484,,,,,,,,0.0484,0,0,9,9,12,1,stimuli/blank.png,Happy,a,,,,,,,,
,,,,,,,,,,,,,daw,2,001,male,2022-11-26_22h21.50.318,openIAT,2020.1.0rc3,Win32,60,l,1,0.034,,,,,,,,0.034,1,0,10,10,19,1,stimuli/blank.png,Nasty,l,,,,,,,,
,,,,,,,,,,,,,daw,2,001,male,2022-11-26_22h21.50.318,openIAT,2020.1.0rc3,Win32,60,l,0,0.5338,,,,,,,,0.5338,0,0,11,11,7,1,stimuli/white_4.jpg,NaN,a,,,,,,,,
,,,,,,,,,,,,,daw,2,001,male,2022-11-26_22h21.50.318,openIAT,2020.1.0rc3,Win32,60,l,0,0.0648,,,,,,,,0.0648,0,0,12,12,10,1,stimuli/blank.png,Good,a,,,,,,,,
,,,,,,,,,,,,,daw,2,001,male,2022-11-26_22h21.50.318,openIAT,2020.1.0rc3,Win32,60,a,0,0.0672,,,,,,,,0.0672,0,0,13,13,4,1,stimuli/black_3.jpg,NaN,l,,,,,,,,
,,,,,,,,,,,,,daw,2,001,male,2022-11-26_22h21.50.318,openIAT,2020.1.0rc3,Win32,60,a,0,0.1062,,,,,,,,0.1062,0,0,14,14,17,1,stimuli/blank.png,Evil,l,,,,,,,,
,,,,,,,,,,,,,daw,2,001,male,2022-11-26_22h21.50.318,openIAT,2020.1.0rc3,Win32,60,l,0,0.0175,,,,,,,,0.0175,0,0,15,15,9,1,stimuli/white_5.jpg,NaN,a,,,,,,,,
,,,,,,,,,,,,,daw,2,001,male,2022-11-26_22h21.50.318,openIAT,2020.1.0rc3,Win32,60,l,0,0.0014,,,,,,,,0.0014,0,0,16,16,16,1,stimuli/blank.png,Love,a,,,,,,,,
,,,,,,,,,,,,,daw,2,001,male,2022-11-26_22h21.50.318,openIAT,2020.1.0rc3,Win32,60,l,0,0.0506,,,,,,,,0.0506,0,0,17,17,3,1,stimuli/white_2.jpg,NaN,a,,,,,,,,
,,,,,,,,,,,,,daw,2,001,male,2022-11-26_22h21.50.318,openIAT,2020.1.0rc3,Win32,60,a,1,0.1033,,,,,,,,0.1033,1,0,18,18,14,1,stimuli/blank.png,Pleasure,a,,,,,,,,
,,,,,,,,,,,,,daw,2,001,male,2022-11-26_22h21.50.318,openIAT,2020.1.0rc3,Win32,60,l,1,0.1171,,,,,,,,0.1171,1,0,19,19,6,1,stimuli/black_4.jpg,NaN,l,,,,,,,,
