instr_done_touch.x,instr_done_touch.y,instr_done_touch.leftButton,instr_done_touch.midButton,instr_done_touch.rightButton,instr_done_touch.clicked_name,instruct_pages.thisRepN,instruct_pages.thisTrialN,instruct_pages.thisN,instruct_pages.thisIndex,instruct_pages.ran,pageN,instruct_text,participant,order,session,gender,date,expName,psychopyVersion,OS,frameRate,key_resp.keys,key_resp.corr,key_resp.rt,touch_resp.x,touch_resp.y,touch_resp.leftButton,touch_resp.midButton,touch_resp.rightButton,touch_resp.time,touch_resp.clicked_name,rt,corr,trials.thisRepN,trials.thisTrialN,trials.thisN,trials.thisIndex,trials.ran,stimImage,stimWord,CorrAns,blocks.thisRepN,blocks.thisTrialN,blocks.thisN,blocks.thisIndex,blocks.ran,conds_file,label_left,label_right
0.097142857,-0.394285714,1,0,0,instr_done_button,0,0,0,0,1,1,"You will be presented with words or images to classify into categories using either the 'A' or 'L' key. 
 
Try to go as fast as possible while making as few mistakes as possible. 
",dhana,1,001,male,2024-08-16_13h23.08.740,openIAT,2020.1.0rc3,MacIntel,60,,,,,,,,,,,,,,,,,,,,,,,,,,,,
0.043809524,-0.42,1,0,0,instr_done_button,0,1,1,1,1,2,"Keep in mind: 
 
1) Labels at the top of the screen indicate which catogory goes with which key. 
 
2) Each word or image has a correct catogory classification 
 
3) Keep your index fingers on the A and L keys to enable a rapid response. 
 
4) The test gives no results if you go slow- please try to go as fast as possible 
",dhana,1,001,male,2024-08-16_13h23.08.740,openIAT,2020.1.0rc3,MacIntel,60,,,,,,,,,,,,,,,,,,,,,,,,,,,,
,,,,,,,,,,,,,dhana,1,001,male,2024-08-16_13h23.08.740,openIAT,2020.1.0rc3,MacIntel,60,l,1,0.771,,,,,,,,0.771,1,0,0,0,3,1,stimuli/blank.png,Hurt,l,,,,,,,,
,,,,,,,,,,,,,dhana,1,001,male,2024-08-16_13h23.08.740,openIAT,2020.1.0rc3,MacIntel,60,a,1,1.08,,,,,,,,1.08,1,0,1,1,6,1,stimuli/blank.png,Love,a,,,,,,,,
,,,,,,,,,,,,,dhana,1,001,male,2024-08-16_13h23.08.740,openIAT,2020.1.0rc3,MacIntel,60,a,1,0.676,,,,,,,,0.676,1,0,2,2,4,1,stimuli/blank.png,Pleasure,a,,,,,,,,
,,,,,,,,,,,,,dhana,1,001,male,2024-08-16_13h23.08.740,openIAT,2020.1.0rc3,MacIntel,60,l,1,0.764,,,,,,,,0.764,1,0,3,3,7,1,stimuli/blank.png,Evil,l,,,,,,,,
,,,,,,,,,,,,,dhana,1,001,male,2024-08-16_13h23.08.740,openIAT,2020.1.0rc3,MacIntel,60,l,1,0.64,,,,,,,,0.64,1,0,4,4,1,1,stimuli/blank.png,Bad,l,,,,,,,,
,,,,,,,,,,,,,dhana,1,001,male,2024-08-16_13h23.08.740,openIAT,2020.1.0rc3,MacIntel,60,l,1,0.652,,,,,,,,0.652,1,0,5,5,5,1,stimuli/blank.png,Agony,l,,,,,,,,
,,,,,,,,,,,,,dhana,1,001,male,2024-08-16_13h23.08.740,openIAT,2020.1.0rc3,MacIntel,60,a,1,0.704,,,,,,,,0.704,1,0,6,6,0,1,stimuli/blank.png,Good,a,,,,,,,,
,,,,,,,,,,,,,dhana,1,001,male,2024-08-16_13h23.08.740,openIAT,2020.1.0rc3,MacIntel,60,l,1,0.791,,,,,,,,0.791,1,0,7,7,9,1,stimuli/blank.png,Nasty,l,,,,,,,,
,,,,,,,,,,,,,dhana,1,001,male,2024-08-16_13h23.08.740,openIAT,2020.1.0rc3,MacIntel,60,a,1,1.056,,,,,,,,1.056,1,0,8,8,8,1,stimuli/blank.png,Joy,a,,,,,,,,
,,,,,,,,,,,,,dhana,1,001,male,2024-08-16_13h23.08.740,openIAT,2020.1.0rc3,MacIntel,60,a,1,0.754,,,,,,,,0.754,1,0,9,9,2,1,stimuli/blank.png,Happy,a,,,,,,,,
,,,,,,,,,,,,,dhana,1,001,male,2024-08-16_13h23.08.740,openIAT,2020.1.0rc3,MacIntel,60,,,,,,,,,,,,,,,,,,,,,0,0,0,0,1,pos_neg_train.xlsx,"A = 
Positive","L = 
Negative"
,,,,,,,,,,,,,dhana,1,001,male,2024-08-16_13h23.08.740,openIAT,2020.1.0rc3,MacIntel,60,a,1,1.988,,,,,,,,1.988,1,0,0,0,5,1,stimuli/white_3.jpg,NaN,a,,,,,,,,
,,,,,,,,,,,,,dhana,1,001,male,2024-08-16_13h23.08.740,openIAT,2020.1.0rc3,MacIntel,60,a,1,0.947,,,,,,,,0.947,1,0,1,1,3,1,stimuli/white_2.jpg,NaN,a,,,,,,,,
,,,,,,,,,,,,,dhana,1,001,male,2024-08-16_13h23.08.740,openIAT,2020.1.0rc3,MacIntel,60,l,1,0.689,,,,,,,,0.689,1,0,2,2,8,1,stimuli/black_5.jpg,NaN,l,,,,,,,,
,,,,,,,,,,,,,dhana,1,001,male,2024-08-16_13h23.08.740,openIAT,2020.1.0rc3,MacIntel,60,l,1,0.613,,,,,,,,0.613,1,0,3,3,6,1,stimuli/black_4.jpg,NaN,l,,,,,,,,
,,,,,,,,,,,,,dhana,1,001,male,2024-08-16_13h23.08.740,openIAT,2020.1.0rc3,MacIntel,60,a,1,0.655,,,,,,,,0.655,1,0,4,4,7,1,stimuli/white_4.jpg,NaN,a,,,,,,,,
,,,,,,,,,,,,,dhana,1,001,male,2024-08-16_13h23.08.740,openIAT,2020.1.0rc3,MacIntel,60,a,1,0.703,,,,,,,,0.703,1,0,5,5,1,1,stimuli/white_1.jpg,NaN,a,,,,,,,,
,,,,,,,,,,,,,dhana,1,001,male,2024-08-16_13h23.08.740,openIAT,2020.1.0rc3,MacIntel,60,l,1,0.684,,,,,,,,0.684,1,0,6,6,2,1,stimuli/black_2.jpg,NaN,l,,,,,,,,
,,,,,,,,,,,,,dhana,1,001,male,2024-08-16_13h23.08.740,openIAT,2020.1.0rc3,MacIntel,60,a,1,0.608,,,,,,,,0.608,1,0,7,7,9,1,stimuli/white_5.jpg,NaN,a,,,,,,,,
,,,,,,,,,,,,,dhana,1,001,male,2024-08-16_13h23.08.740,openIAT,2020.1.0rc3,MacIntel,60,l,1,0.755,,,,,,,,0.755,1,0,8,8,0,1,stimuli/black_1.jpg,NaN,l,,,,,,,,
,,,,,,,,,,,,,dhana,1,001,male,2024-08-16_13h23.08.740,openIAT,2020.1.0rc3,MacIntel,60,l,1,0.643,,,,,,,,0.643,1,0,9,9,4,1,stimuli/black_3.jpg,NaN,l,,,,,,,,
,,,,,,,,,,,,,dhana,1,001,male,2024-08-16_13h23.08.740,openIAT,2020.1.0rc3,MacIntel,60,,,,,,,,,,,,,,,,,,,,,0,1,1,1,1,cong_train.xlsx,"A = 
White","L = 
Black"
,,,,,,,,,,,,,dhana,1,001,male,2024-08-16_13h23.08.740,openIAT,2020.1.0rc3,MacIntel,60,l,1,1.18,,,,,,,,1.18,1,0,0,0,17,1,stimuli/blank.png,Evil,l,,,,,,,,
,,,,,,,,,,,,,dhana,1,001,male,2024-08-16_13h23.08.740,openIAT,2020.1.0rc3,MacIntel,60,a,1,2.256,,,,,,,,2.256,1,0,1,1,14,1,stimuli/blank.png,Pleasure,a,,,,,,,,
,,,,,,,,,,,,,dhana,1,001,male,2024-08-16_13h23.08.740,openIAT,2020.1.0rc3,MacIntel,60,a,1,1.04,,,,,,,,1.04,1,0,2,2,5,1,stimuli/white_3.jpg,NaN,a,,,,,,,,
,,,,,,,,,,,,,dhana,1,001,male,2024-08-16_13h23.08.740,openIAT,2020.1.0rc3,MacIntel,60,a,1,0.648,,,,,,,,0.648,1,0,3,3,7,1,stimuli/white_4.jpg,NaN,a,,,,,,,,
,,,,,,,,,,,,,dhana,1,001,male,2024-08-16_13h23.08.740,openIAT,2020.1.0rc3,MacIntel,60,l,1,1.515,,,,,,,,1.515,1,0,4,4,2,1,stimuli/black_2.jpg,NaN,l,,,,,,,,
,,,,,,,,,,,,,dhana,1,001,male,2024-08-16_13h23.08.740,openIAT,2020.1.0rc3,MacIntel,60,l,1,0.582,,,,,,,,0.582,1,0,5,5,8,1,stimuli/black_5.jpg,NaN,l,,,,,,,,
,,,,,,,,,,,,,dhana,1,001,male,2024-08-16_13h23.08.740,openIAT,2020.1.0rc3,MacIntel,60,l,1,0.89,,,,,,,,0.89,1,0,6,6,4,1,stimuli/black_3.jpg,NaN,l,,,,,,,,
,,,,,,,,,,,,,dhana,1,001,male,2024-08-16_13h23.08.740,openIAT,2020.1.0rc3,MacIntel,60,l,1,1.018,,,,,,,,1.018,1,0,7,7,13,1,stimuli/blank.png,Hurt,l,,,,,,,,
,,,,,,,,,,,,,dhana,1,001,male,2024-08-16_13h23.08.740,openIAT,2020.1.0rc3,MacIntel,60,a,1,0.609,,,,,,,,0.609,1,0,8,8,9,1,stimuli/white_5.jpg,NaN,a,,,,,,,,
,,,,,,,,,,,,,dhana,1,001,male,2024-08-16_13h23.08.740,openIAT,2020.1.0rc3,MacIntel,60,l,1,0.673,,,,,,,,0.673,1,0,9,9,11,1,stimuli/blank.png,Bad,l,,,,,,,,
,,,,,,,,,,,,,dhana,1,001,male,2024-08-16_13h23.08.740,openIAT,2020.1.0rc3,MacIntel,60,a,1,0.747,,,,,,,,0.747,1,0,10,10,10,1,stimuli/blank.png,Good,a,,,,,,,,
,,,,,,,,,,,,,dhana,1,001,male,2024-08-16_13h23.08.740,openIAT,2020.1.0rc3,MacIntel,60,l,1,0.974,,,,,,,,0.974,1,0,11,11,19,1,stimuli/blank.png,Nasty,l,,,,,,,,
,,,,,,,,,,,,,dhana,1,001,male,2024-08-16_13h23.08.740,openIAT,2020.1.0rc3,MacIntel,60,a,1,1.094,,,,,,,,1.094,1,0,12,12,18,1,stimuli/blank.png,Joy,a,,,,,,,,
,,,,,,,,,,,,,dhana,1,001,male,2024-08-16_13h23.08.740,openIAT,2020.1.0rc3,MacIntel,60,a,1,0.843,,,,,,,,0.843,1,0,13,13,1,1,stimuli/white_1.jpg,NaN,a,,,,,,,,
,,,,,,,,,,,,,dhana,1,001,male,2024-08-16_13h23.08.740,openIAT,2020.1.0rc3,MacIntel,60,l,1,0.841,,,,,,,,0.841,1,0,14,14,0,1,stimuli/black_1.jpg,NaN,l,,,,,,,,
,,,,,,,,,,,,,dhana,1,001,male,2024-08-16_13h23.08.740,openIAT,2020.1.0rc3,MacIntel,60,l,1,0.7,,,,,,,,0.7,1,0,15,15,15,1,stimuli/blank.png,Agony,l,,,,,,,,
,,,,,,,,,,,,,dhana,1,001,male,2024-08-16_13h23.08.740,openIAT,2020.1.0rc3,MacIntel,60,a,1,1.004,,,,,,,,1.004,1,0,16,16,16,1,stimuli/blank.png,Love,a,,,,,,,,
,,,,,,,,,,,,,dhana,1,001,male,2024-08-16_13h23.08.740,openIAT,2020.1.0rc3,MacIntel,60,l,1,0.674,,,,,,,,0.674,1,0,17,17,6,1,stimuli/black_4.jpg,NaN,l,,,,,,,,
,,,,,,,,,,,,,dhana,1,001,male,2024-08-16_13h23.08.740,openIAT,2020.1.0rc3,MacIntel,60,a,1,0.553,,,,,,,,0.553,1,0,18,18,12,1,stimuli/blank.png,Happy,a,,,,,,,,
,,,,,,,,,,,,,dhana,1,001,male,2024-08-16_13h23.08.740,openIAT,2020.1.0rc3,MacIntel,60,a,1,0.673,,,,,,,,0.673,1,0,19,19,3,1,stimuli/white_2.jpg,NaN,a,,,,,,,,
,,,,,,,,,,,,,dhana,1,001,male,2024-08-16_13h23.08.740,openIAT,2020.1.0rc3,MacIntel,60,,,,,,,,,,,,,,,,,,,,,0,2,2,2,1,cong_test.xlsx,"A = 
White or 
Positive","L = 
Black or 
Negative"
,,,,,,,,,,,,,dhana,1,001,male,2024-08-16_13h23.08.740,openIAT,2020.1.0rc3,MacIntel,60,l,1,1.261,,,,,,,,1.261,1,0,0,0,3,1,stimuli/white_2.jpg,,l,,,,,,,,
,,,,,,,,,,,,,dhana,1,001,male,2024-08-16_13h23.08.740,openIAT,2020.1.0rc3,MacIntel,60,a,1,0.795,,,,,,,,0.795,1,0,1,1,4,1,stimuli/black_3.jpg,,a,,,,,,,,
,,,,,,,,,,,,,dhana,1,001,male,2024-08-16_13h23.08.740,openIAT,2020.1.0rc3,MacIntel,60,l,1,1.226,,,,,,,,1.226,1,0,2,2,7,1,stimuli/white_4.jpg,,l,,,,,,,,
,,,,,,,,,,,,,dhana,1,001,male,2024-08-16_13h23.08.740,openIAT,2020.1.0rc3,MacIntel,60,a,1,0.689,,,,,,,,0.689,1,0,3,3,6,1,stimuli/black_4.jpg,,a,,,,,,,,
,,,,,,,,,,,,,dhana,1,001,male,2024-08-16_13h23.08.740,openIAT,2020.1.0rc3,MacIntel,60,a,1,1.523,,,,,,,,1.523,1,0,4,4,0,1,stimuli/black_1.jpg,,a,,,,,,,,
,,,,,,,,,,,,,dhana,1,001,male,2024-08-16_13h23.08.740,openIAT,2020.1.0rc3,MacIntel,60,l,1,0.542,,,,,,,,0.542,1,0,5,5,5,1,stimuli/white_3.jpg,,l,,,,,,,,
,,,,,,,,,,,,,dhana,1,001,male,2024-08-16_13h23.08.740,openIAT,2020.1.0rc3,MacIntel,60,a,1,0.75,,,,,,,,0.75,1,0,6,6,8,1,stimuli/black_5.jpg,,a,,,,,,,,
,,,,,,,,,,,,,dhana,1,001,male,2024-08-16_13h23.08.740,openIAT,2020.1.0rc3,MacIntel,60,l,1,0.587,,,,,,,,0.587,1,0,7,7,1,1,stimuli/white_1.jpg,,l,,,,,,,,
,,,,,,,,,,,,,dhana,1,001,male,2024-08-16_13h23.08.740,openIAT,2020.1.0rc3,MacIntel,60,l,1,0.721,,,,,,,,0.721,1,0,8,8,9,1,stimuli/white_5.jpg,,l,,,,,,,,
,,,,,,,,,,,,,dhana,1,001,male,2024-08-16_13h23.08.740,openIAT,2020.1.0rc3,MacIntel,60,a,1,0.677,,,,,,,,0.677,1,0,9,9,2,1,stimuli/black_2.jpg,,a,,,,,,,,
,,,,,,,,,,,,,dhana,1,001,male,2024-08-16_13h23.08.740,openIAT,2020.1.0rc3,MacIntel,60,,,,,,,,,,,,,,,,,,,,,0,3,3,3,1,incong_train.xlsx,"A = 
Black","L = 
White"
,,,,,,,,,,,,,dhana,1,001,male,2024-08-16_13h23.08.740,openIAT,2020.1.0rc3,MacIntel,60,l,1,1.756,,,,,,,,1.756,1,0,0,0,19,1,stimuli/blank.png,Nasty,l,,,,,,,,
,,,,,,,,,,,,,dhana,1,001,male,2024-08-16_13h23.08.740,openIAT,2020.1.0rc3,MacIntel,60,l,1,1.49,,,,,,,,1.49,1,0,1,1,9,1,stimuli/white_5.jpg,,l,,,,,,,,
,,,,,,,,,,,,,dhana,1,001,male,2024-08-16_13h23.08.740,openIAT,2020.1.0rc3,MacIntel,60,a,1,1.686,,,,,,,,1.686,1,0,2,2,0,1,stimuli/black_1.jpg,,a,,,,,,,,
,,,,,,,,,,,,,dhana,1,001,male,2024-08-16_13h23.08.740,openIAT,2020.1.0rc3,MacIntel,60,a,1,1.671,,,,,,,,1.671,1,0,3,3,10,1,stimuli/blank.png,Good,a,,,,,,,,
,,,,,,,,,,,,,dhana,1,001,male,2024-08-16_13h23.08.740,openIAT,2020.1.0rc3,MacIntel,60,l,1,1.449,,,,,,,,1.449,1,0,4,4,15,1,stimuli/blank.png,Agony,l,,,,,,,,
,,,,,,,,,,,,,dhana,1,001,male,2024-08-16_13h23.08.740,openIAT,2020.1.0rc3,MacIntel,60,a,1,1.362,,,,,,,,1.362,1,0,5,5,18,1,stimuli/blank.png,Joy,a,,,,,,,,
,,,,,,,,,,,,,dhana,1,001,male,2024-08-16_13h23.08.740,openIAT,2020.1.0rc3,MacIntel,60,l,1,1.208,,,,,,,,1.208,1,0,6,6,13,1,stimuli/blank.png,Hurt,l,,,,,,,,
,,,,,,,,,,,,,dhana,1,001,male,2024-08-16_13h23.08.740,openIAT,2020.1.0rc3,MacIntel,60,a,1,0.952,,,,,,,,0.952,1,0,7,7,2,1,stimuli/black_2.jpg,,a,,,,,,,,
,,,,,,,,,,,,,dhana,1,001,male,2024-08-16_13h23.08.740,openIAT,2020.1.0rc3,MacIntel,60,l,1,1.405,,,,,,,,1.405,1,0,8,8,11,1,stimuli/blank.png,Bad,l,,,,,,,,
,,,,,,,,,,,,,dhana,1,001,male,2024-08-16_13h23.08.740,openIAT,2020.1.0rc3,MacIntel,60,l,1,1.379,,,,,,,,1.379,1,0,9,9,1,1,stimuli/white_1.jpg,,l,,,,,,,,
,,,,,,,,,,,,,dhana,1,001,male,2024-08-16_13h23.08.740,openIAT,2020.1.0rc3,MacIntel,60,a,1,0.738,,,,,,,,0.738,1,0,10,10,6,1,stimuli/black_4.jpg,,a,,,,,,,,
,,,,,,,,,,,,,dhana,1,001,male,2024-08-16_13h23.08.740,openIAT,2020.1.0rc3,MacIntel,60,a,1,0.794,,,,,,,,0.794,1,0,11,11,4,1,stimuli/black_3.jpg,,a,,,,,,,,
,,,,,,,,,,,,,dhana,1,001,male,2024-08-16_13h23.08.740,openIAT,2020.1.0rc3,MacIntel,60,a,1,1.781,,,,,,,,1.781,1,0,12,12,16,1,stimuli/blank.png,Love,a,,,,,,,,
,,,,,,,,,,,,,dhana,1,001,male,2024-08-16_13h23.08.740,openIAT,2020.1.0rc3,MacIntel,60,l,1,1.267,,,,,,,,1.267,1,0,13,13,5,1,stimuli/white_3.jpg,,l,,,,,,,,
,,,,,,,,,,,,,dhana,1,001,male,2024-08-16_13h23.08.740,openIAT,2020.1.0rc3,MacIntel,60,a,1,1.084,,,,,,,,1.084,1,0,14,14,12,1,stimuli/blank.png,Happy,a,,,,,,,,
,,,,,,,,,,,,,dhana,1,001,male,2024-08-16_13h23.08.740,openIAT,2020.1.0rc3,MacIntel,60,l,1,1.576,,,,,,,,1.576,1,0,15,15,7,1,stimuli/white_4.jpg,,l,,,,,,,,
,,,,,,,,,,,,,dhana,1,001,male,2024-08-16_13h23.08.740,openIAT,2020.1.0rc3,MacIntel,60,a,1,0.709,,,,,,,,0.709,1,0,16,16,8,1,stimuli/black_5.jpg,,a,,,,,,,,
,,,,,,,,,,,,,dhana,1,001,male,2024-08-16_13h23.08.740,openIAT,2020.1.0rc3,MacIntel,60,l,1,0.981,,,,,,,,0.981,1,0,17,17,17,1,stimuli/blank.png,Evil,l,,,,,,,,
,,,,,,,,,,,,,dhana,1,001,male,2024-08-16_13h23.08.740,openIAT,2020.1.0rc3,MacIntel,60,l,1,1.504,,,,,,,,1.504,1,0,18,18,3,1,stimuli/white_2.jpg,,l,,,,,,,,
,,,,,,,,,,,,,dhana,1,001,male,2024-08-16_13h23.08.740,openIAT,2020.1.0rc3,MacIntel,60,a,1,1.259,,,,,,,,1.259,1,0,19,19,14,1,stimuli/blank.png,Pleasure,a,,,,,,,,
