instr_done_touch.x,instr_done_touch.y,instr_done_touch.leftButton,instr_done_touch.midButton,instr_done_touch.rightButton,instr_done_touch.clicked_name,instruct_pages.thisRepN,instruct_pages.thisTrialN,instruct_pages.thisN,instruct_pages.thisIndex,instruct_pages.ran,pageN,instruct_text,participant,order,session,gender,date,expName,psychopyVersion,OS,frameRate,key_resp.keys,key_resp.corr,key_resp.rt,touch_resp.x,touch_resp.y,touch_resp.leftButton,touch_resp.midButton,touch_resp.rightButton,touch_resp.time,touch_resp.clicked_name,rt,corr,trials.thisRepN,trials.thisTrialN,trials.thisN,trials.thisIndex,trials.ran,stimImage,stimWord,CorrAns,blocks.thisRepN,blocks.thisTrialN,blocks.thisN,blocks.thisIndex,blocks.ran,conds_file,label_left,label_right
-0.008333333,-0.398611111,1,0,0,instr_done_button,0,0,0,0,1,1,"You will be presented with words or images to classify into categories using either the 'A' or 'L' key. 
 
Try to go as fast as possible while making as few mistakes as possible. 
",dididi,2,001,male,2023-12-26_22h22.41.006,openIAT,2020.1.0rc3,Win32,60,,,,,,,,,,,,,,,,,,,,,,,,,,,,
-0.008333333,-0.398611111,0,0,0,,0,1,1,1,1,2,"Keep in mind: 
 
1) Labels at the top of the screen indicate which catogory goes with which key. 
 
2) Each word or image has a correct catogory classification 
 
3) Keep your index fingers on the A and L keys to enable a rapid response. 
 
4) The test gives no results if you go slow- please try to go as fast as possible 
",dididi,2,001,male,2023-12-26_22h22.41.006,openIAT,2020.1.0rc3,Win32,60,,,,,,,,,,,,,,,,,,,,,,,,,,,,
,,,,,,,,,,,,,dididi,2,001,male,2023-12-26_22h22.41.006,openIAT,2020.1.0rc3,Win32,60,a,1,0.869,,,,,,,,0.869,1,0,0,0,0,1,stimuli/blank.png,Good,a,,,,,,,,
,,,,,,,,,,,,,dididi,2,001,male,2023-12-26_22h22.41.006,openIAT,2020.1.0rc3,Win32,60,l,1,0.74,,,,,,,,0.74,1,0,1,1,3,1,stimuli/blank.png,Hurt,l,,,,,,,,
,,,,,,,,,,,,,dididi,2,001,male,2023-12-26_22h22.41.006,openIAT,2020.1.0rc3,Win32,60,l,0,0.746,,,,,,,,0.746,0,0,2,2,8,1,stimuli/blank.png,Joy,a,,,,,,,,
,,,,,,,,,,,,,dididi,2,001,male,2023-12-26_22h22.41.006,openIAT,2020.1.0rc3,Win32,60,l,1,0.889,,,,,,,,0.889,1,0,3,3,1,1,stimuli/blank.png,Bad,l,,,,,,,,
,,,,,,,,,,,,,dididi,2,001,male,2023-12-26_22h22.41.006,openIAT,2020.1.0rc3,Win32,60,a,1,0.613,,,,,,,,0.613,1,0,4,4,6,1,stimuli/blank.png,Love,a,,,,,,,,
,,,,,,,,,,,,,dididi,2,001,male,2023-12-26_22h22.41.006,openIAT,2020.1.0rc3,Win32,60,l,1,0.724,,,,,,,,0.724,1,0,5,5,9,1,stimuli/blank.png,Nasty,l,,,,,,,,
,,,,,,,,,,,,,dididi,2,001,male,2023-12-26_22h22.41.006,openIAT,2020.1.0rc3,Win32,60,a,1,1.038,,,,,,,,1.038,1,0,6,6,4,1,stimuli/blank.png,Pleasure,a,,,,,,,,
,,,,,,,,,,,,,dididi,2,001,male,2023-12-26_22h22.41.006,openIAT,2020.1.0rc3,Win32,60,l,1,0.564,,,,,,,,0.564,1,0,7,7,7,1,stimuli/blank.png,Evil,l,,,,,,,,
,,,,,,,,,,,,,dididi,2,001,male,2023-12-26_22h22.41.006,openIAT,2020.1.0rc3,Win32,60,a,1,0.644,,,,,,,,0.644,1,0,8,8,2,1,stimuli/blank.png,Happy,a,,,,,,,,
,,,,,,,,,,,,,dididi,2,001,male,2023-12-26_22h22.41.006,openIAT,2020.1.0rc3,Win32,60,l,1,0.982,,,,,,,,0.982,1,0,9,9,5,1,stimuli/blank.png,Agony,l,,,,,,,,
,,,,,,,,,,,,,dididi,2,001,male,2023-12-26_22h22.41.006,openIAT,2020.1.0rc3,Win32,60,,,,,,,,,,,,,,,,,,,,,0,0,0,0,1,pos_neg_train.xlsx,"A = 
Positive","L = 
Negative"
,,,,,,,,,,,,,dididi,2,001,male,2023-12-26_22h22.41.006,openIAT,2020.1.0rc3,Win32,60,a,0,2.39,,,,,,,,2.39,0,0,0,0,1,1,stimuli/white_1.jpg,,l,,,,,,,,
,,,,,,,,,,,,,dididi,2,001,male,2023-12-26_22h22.41.006,openIAT,2020.1.0rc3,Win32,60,a,0,1.183,,,,,,,,1.183,0,0,1,1,5,1,stimuli/white_3.jpg,,l,,,,,,,,
,,,,,,,,,,,,,dididi,2,001,male,2023-12-26_22h22.41.006,openIAT,2020.1.0rc3,Win32,60,l,1,0.957,,,,,,,,0.957,1,0,2,2,9,1,stimuli/white_5.jpg,,l,,,,,,,,
,,,,,,,,,,,,,dididi,2,001,male,2023-12-26_22h22.41.006,openIAT,2020.1.0rc3,Win32,60,a,1,0.647,,,,,,,,0.647,1,0,3,3,4,1,stimuli/black_3.jpg,,a,,,,,,,,
,,,,,,,,,,,,,dididi,2,001,male,2023-12-26_22h22.41.006,openIAT,2020.1.0rc3,Win32,60,l,1,0.782,,,,,,,,0.782,1,0,4,4,3,1,stimuli/white_2.jpg,,l,,,,,,,,
,,,,,,,,,,,,,dididi,2,001,male,2023-12-26_22h22.41.006,openIAT,2020.1.0rc3,Win32,60,a,1,0.683,,,,,,,,0.683,1,0,5,5,2,1,stimuli/black_2.jpg,,a,,,,,,,,
,,,,,,,,,,,,,dididi,2,001,male,2023-12-26_22h22.41.006,openIAT,2020.1.0rc3,Win32,60,a,1,0.679,,,,,,,,0.679,1,0,6,6,8,1,stimuli/black_5.jpg,,a,,,,,,,,
,,,,,,,,,,,,,dididi,2,001,male,2023-12-26_22h22.41.006,openIAT,2020.1.0rc3,Win32,60,a,1,0.523,,,,,,,,0.523,1,0,7,7,0,1,stimuli/black_1.jpg,,a,,,,,,,,
,,,,,,,,,,,,,dididi,2,001,male,2023-12-26_22h22.41.006,openIAT,2020.1.0rc3,Win32,60,a,1,0.623,,,,,,,,0.623,1,0,8,8,6,1,stimuli/black_4.jpg,,a,,,,,,,,
,,,,,,,,,,,,,dididi,2,001,male,2023-12-26_22h22.41.006,openIAT,2020.1.0rc3,Win32,60,l,1,0.739,,,,,,,,0.739,1,0,9,9,7,1,stimuli/white_4.jpg,,l,,,,,,,,
,,,,,,,,,,,,,dididi,2,001,male,2023-12-26_22h22.41.006,openIAT,2020.1.0rc3,Win32,60,,,,,,,,,,,,,,,,,,,,,0,1,1,1,1,incong_train.xlsx,"A = 
Black","L = 
White"
