instr_done_touch.x,instr_done_touch.y,instr_done_touch.leftButton,instr_done_touch.midButton,instr_done_touch.rightButton,instr_done_touch.clicked_name,instruct_pages.thisRepN,instruct_pages.thisTrialN,instruct_pages.thisN,instruct_pages.thisIndex,instruct_pages.ran,pageN,instruct_text,participant,order,session,gender,date,expName,psychopyVersion,OS,frameRate,key_resp.keys,key_resp.corr,key_resp.rt,touch_resp.x,touch_resp.y,touch_resp.leftButton,touch_resp.midButton,touch_resp.rightButton,touch_resp.time,touch_resp.clicked_name,rt,corr,trials.thisRepN,trials.thisTrialN,trials.thisN,trials.thisIndex,trials.ran,stimImage,stimWord,CorrAns,blocks.thisRepN,blocks.thisTrialN,blocks.thisN,blocks.thisIndex,blocks.ran,conds_file,label_left,label_right
0.012037037,-0.431481481,1,0,0,instr_done_button,0,0,0,0,1,1,"You will be presented with words or images to classify into categories using either the 'A' or 'L' key. 
 
Try to go as fast as possible while making as few mistakes as possible. 
",Dito,1,001,male,2022-06-02_12h14.50.397,openIAT,2020.1.0rc3,Win32,60,,,,,,,,,,,,,,,,,,,,,,,,,,,,
0.009259259,-0.416666667,1,0,0,instr_done_button,0,1,1,1,1,2,"Keep in mind: 
 
1) Labels at the top of the screen indicate which catogory goes with which key. 
 
2) Each word or image has a correct catogory classification 
 
3) Keep your index fingers on the A and L keys to enable a rapid response. 
 
4) The test gives no results if you go slow- please try to go as fast as possible 
",Dito,1,001,male,2022-06-02_12h14.50.397,openIAT,2020.1.0rc3,Win32,60,,,,,,,,,,,,,,,,,,,,,,,,,,,,
,,,,,,,,,,,,,Dito,1,001,male,2022-06-02_12h14.50.397,openIAT,2020.1.0rc3,Win32,60,l,1,4.6308,,,,,,,,4.6308,1,0,0,0,5,1,stimuli/blank.png,Agony,l,,,,,,,,
,,,,,,,,,,,,,Dito,1,001,male,2022-06-02_12h14.50.397,openIAT,2020.1.0rc3,Win32,60,l,1,3.3859,,,,,,,,3.3859,1,0,1,1,1,1,stimuli/blank.png,Bad,l,,,,,,,,
,,,,,,,,,,,,,Dito,1,001,male,2022-06-02_12h14.50.397,openIAT,2020.1.0rc3,Win32,60,a,1,1.9907,,,,,,,,1.9907,1,0,2,2,4,1,stimuli/blank.png,Pleasure,a,,,,,,,,
,,,,,,,,,,,,,Dito,1,001,male,2022-06-02_12h14.50.397,openIAT,2020.1.0rc3,Win32,60,l,1,1.035,,,,,,,,1.035,1,0,3,3,3,1,stimuli/blank.png,Hurt,l,,,,,,,,
,,,,,,,,,,,,,Dito,1,001,male,2022-06-02_12h14.50.397,openIAT,2020.1.0rc3,Win32,60,a,1,2.2578,,,,,,,,2.2578,1,0,4,4,2,1,stimuli/blank.png,Happy,a,,,,,,,,
,,,,,,,,,,,,,Dito,1,001,male,2022-06-02_12h14.50.397,openIAT,2020.1.0rc3,Win32,60,a,1,1.1508,,,,,,,,1.1508,1,0,5,5,6,1,stimuli/blank.png,Love,a,,,,,,,,
,,,,,,,,,,,,,Dito,1,001,male,2022-06-02_12h14.50.397,openIAT,2020.1.0rc3,Win32,60,a,1,0.963,,,,,,,,0.963,1,0,6,6,8,1,stimuli/blank.png,Joy,a,,,,,,,,
,,,,,,,,,,,,,Dito,1,001,male,2022-06-02_12h14.50.397,openIAT,2020.1.0rc3,Win32,60,a,0,7.4556,,,,,,,,7.4556,0,0,7,7,9,1,stimuli/blank.png,Nasty,l,,,,,,,,
,,,,,,,,,,,,,Dito,1,001,male,2022-06-02_12h14.50.397,openIAT,2020.1.0rc3,Win32,60,l,1,1.2779,,,,,,,,1.2779,1,0,8,8,7,1,stimuli/blank.png,Evil,l,,,,,,,,
,,,,,,,,,,,,,Dito,1,001,male,2022-06-02_12h14.50.397,openIAT,2020.1.0rc3,Win32,60,a,1,1.1112,,,,,,,,1.1112,1,0,9,9,0,1,stimuli/blank.png,Good,a,,,,,,,,
,,,,,,,,,,,,,Dito,1,001,male,2022-06-02_12h14.50.397,openIAT,2020.1.0rc3,Win32,60,,,,,,,,,,,,,,,,,,,,,0,0,0,0,1,pos_neg_train.xlsx,"A = 
Positive","L = 
Negative"
,,,,,,,,,,,,,Dito,1,001,male,2022-06-02_12h14.50.397,openIAT,2020.1.0rc3,Win32,60,l,1,7.7067,,,,,,,,7.7067,1,0,0,0,2,1,stimuli/black_2.jpg,NaN,l,,,,,,,,
,,,,,,,,,,,,,Dito,1,001,male,2022-06-02_12h14.50.397,openIAT,2020.1.0rc3,Win32,60,l,0,2.3099,,,,,,,,2.3099,0,0,1,1,1,1,stimuli/white_1.jpg,NaN,a,,,,,,,,
,,,,,,,,,,,,,Dito,1,001,male,2022-06-02_12h14.50.397,openIAT,2020.1.0rc3,Win32,60,l,1,4.5124,,,,,,,,4.5124,1,0,2,2,0,1,stimuli/black_1.jpg,NaN,l,,,,,,,,
,,,,,,,,,,,,,Dito,1,001,male,2022-06-02_12h14.50.397,openIAT,2020.1.0rc3,Win32,60,l,1,3.133,,,,,,,,3.133,1,0,3,3,6,1,stimuli/black_4.jpg,NaN,l,,,,,,,,
,,,,,,,,,,,,,Dito,1,001,male,2022-06-02_12h14.50.397,openIAT,2020.1.0rc3,Win32,60,l,1,3.7049,,,,,,,,3.7049,1,0,4,4,4,1,stimuli/black_3.jpg,NaN,l,,,,,,,,
,,,,,,,,,,,,,Dito,1,001,male,2022-06-02_12h14.50.397,openIAT,2020.1.0rc3,Win32,60,l,0,1.9997,,,,,,,,1.9997,0,0,5,5,3,1,stimuli/white_2.jpg,NaN,a,,,,,,,,
,,,,,,,,,,,,,Dito,1,001,male,2022-06-02_12h14.50.397,openIAT,2020.1.0rc3,Win32,60,l,1,3.2277,,,,,,,,3.2277,1,0,6,6,8,1,stimuli/black_5.jpg,NaN,l,,,,,,,,
,,,,,,,,,,,,,Dito,1,001,male,2022-06-02_12h14.50.397,openIAT,2020.1.0rc3,Win32,60,a,1,4.3275,,,,,,,,4.3275,1,0,7,7,7,1,stimuli/white_4.jpg,NaN,a,,,,,,,,
,,,,,,,,,,,,,Dito,1,001,male,2022-06-02_12h14.50.397,openIAT,2020.1.0rc3,Win32,60,a,1,1.349,,,,,,,,1.349,1,0,8,8,9,1,stimuli/white_5.jpg,NaN,a,,,,,,,,
,,,,,,,,,,,,,Dito,1,001,male,2022-06-02_12h14.50.397,openIAT,2020.1.0rc3,Win32,60,l,0,1.013,,,,,,,,1.013,0,0,9,9,5,1,stimuli/white_3.jpg,NaN,a,,,,,,,,
,,,,,,,,,,,,,Dito,1,001,male,2022-06-02_12h14.50.397,openIAT,2020.1.0rc3,Win32,60,,,,,,,,,,,,,,,,,,,,,0,1,1,1,1,cong_train.xlsx,"A = 
White","L = 
Black"
,,,,,,,,,,,,,Dito,1,001,male,2022-06-02_12h14.50.397,openIAT,2020.1.0rc3,Win32,60,l,1,13.981,,,,,,,,13.981,1,0,0,0,0,1,stimuli/black_1.jpg,NaN,l,,,,,,,,
,,,,,,,,,,,,,Dito,1,001,male,2022-06-02_12h14.50.397,openIAT,2020.1.0rc3,Win32,60,a,1,1.9104,,,,,,,,1.9104,1,0,1,1,3,1,stimuli/white_2.jpg,NaN,a,,,,,,,,
,,,,,,,,,,,,,Dito,1,001,male,2022-06-02_12h14.50.397,openIAT,2020.1.0rc3,Win32,60,a,1,2.8751,,,,,,,,2.8751,1,0,2,2,18,1,stimuli/blank.png,Joy,a,,,,,,,,
,,,,,,,,,,,,,Dito,1,001,male,2022-06-02_12h14.50.397,openIAT,2020.1.0rc3,Win32,60,l,1,1.0427,,,,,,,,1.0427,1,0,3,3,17,1,stimuli/blank.png,Evil,l,,,,,,,,
,,,,,,,,,,,,,Dito,1,001,male,2022-06-02_12h14.50.397,openIAT,2020.1.0rc3,Win32,60,l,1,1.0973,,,,,,,,1.0973,1,0,4,4,19,1,stimuli/blank.png,Nasty,l,,,,,,,,
,,,,,,,,,,,,,Dito,1,001,male,2022-06-02_12h14.50.397,openIAT,2020.1.0rc3,Win32,60,a,1,1.0372,,,,,,,,1.0372,1,0,5,5,14,1,stimuli/blank.png,Pleasure,a,,,,,,,,
,,,,,,,,,,,,,Dito,1,001,male,2022-06-02_12h14.50.397,openIAT,2020.1.0rc3,Win32,60,a,1,0.8057,,,,,,,,0.8057,1,0,6,6,12,1,stimuli/blank.png,Happy,a,,,,,,,,
,,,,,,,,,,,,,Dito,1,001,male,2022-06-02_12h14.50.397,openIAT,2020.1.0rc3,Win32,60,a,1,3.3136,,,,,,,,3.3136,1,0,7,7,1,1,stimuli/white_1.jpg,NaN,a,,,,,,,,
,,,,,,,,,,,,,Dito,1,001,male,2022-06-02_12h14.50.397,openIAT,2020.1.0rc3,Win32,60,l,1,2.4029,,,,,,,,2.4029,1,0,8,8,2,1,stimuli/black_2.jpg,NaN,l,,,,,,,,
,,,,,,,,,,,,,Dito,1,001,male,2022-06-02_12h14.50.397,openIAT,2020.1.0rc3,Win32,60,a,1,1.1663,,,,,,,,1.1663,1,0,9,9,7,1,stimuli/white_4.jpg,NaN,a,,,,,,,,
,,,,,,,,,,,,,Dito,1,001,male,2022-06-02_12h14.50.397,openIAT,2020.1.0rc3,Win32,60,a,1,1.0368,,,,,,,,1.0368,1,0,10,10,16,1,stimuli/blank.png,Love,a,,,,,,,,
,,,,,,,,,,,,,Dito,1,001,male,2022-06-02_12h14.50.397,openIAT,2020.1.0rc3,Win32,60,a,1,0.9864,,,,,,,,0.9864,1,0,11,11,10,1,stimuli/blank.png,Good,a,,,,,,,,
,,,,,,,,,,,,,Dito,1,001,male,2022-06-02_12h14.50.397,openIAT,2020.1.0rc3,Win32,60,a,1,1.2093,,,,,,,,1.2093,1,0,12,12,9,1,stimuli/white_5.jpg,NaN,a,,,,,,,,
,,,,,,,,,,,,,Dito,1,001,male,2022-06-02_12h14.50.397,openIAT,2020.1.0rc3,Win32,60,l,1,1.2916,,,,,,,,1.2916,1,0,13,13,6,1,stimuli/black_4.jpg,NaN,l,,,,,,,,
,,,,,,,,,,,,,Dito,1,001,male,2022-06-02_12h14.50.397,openIAT,2020.1.0rc3,Win32,60,a,1,0.9441,,,,,,,,0.9441,1,0,14,14,5,1,stimuli/white_3.jpg,NaN,a,,,,,,,,
,,,,,,,,,,,,,Dito,1,001,male,2022-06-02_12h14.50.397,openIAT,2020.1.0rc3,Win32,60,l,1,1.101,,,,,,,,1.101,1,0,15,15,11,1,stimuli/blank.png,Bad,l,,,,,,,,
,,,,,,,,,,,,,Dito,1,001,male,2022-06-02_12h14.50.397,openIAT,2020.1.0rc3,Win32,60,l,1,1.1227,,,,,,,,1.1227,1,0,16,16,4,1,stimuli/black_3.jpg,NaN,l,,,,,,,,
,,,,,,,,,,,,,Dito,1,001,male,2022-06-02_12h14.50.397,openIAT,2020.1.0rc3,Win32,60,l,1,0.9032,,,,,,,,0.9032,1,0,17,17,15,1,stimuli/blank.png,Agony,l,,,,,,,,
,,,,,,,,,,,,,Dito,1,001,male,2022-06-02_12h14.50.397,openIAT,2020.1.0rc3,Win32,60,l,1,1.9528,,,,,,,,1.9528,1,0,18,18,13,1,stimuli/blank.png,Hurt,l,,,,,,,,
,,,,,,,,,,,,,Dito,1,001,male,2022-06-02_12h14.50.397,openIAT,2020.1.0rc3,Win32,60,l,1,0.7686,,,,,,,,0.7686,1,0,19,19,8,1,stimuli/black_5.jpg,NaN,l,,,,,,,,
,,,,,,,,,,,,,Dito,1,001,male,2022-06-02_12h14.50.397,openIAT,2020.1.0rc3,Win32,60,,,,,,,,,,,,,,,,,,,,,0,2,2,2,1,cong_test.xlsx,"A = 
White or 
Positive","L = 
Black or 
Negative"
