instr_done_touch.x,instr_done_touch.y,instr_done_touch.leftButton,instr_done_touch.midButton,instr_done_touch.rightButton,instruct_pages.thisRepN,instruct_pages.thisTrialN,instruct_pages.thisN,instruct_pages.thisIndex,instruct_pages.ran,pageN,instruct_text,participant,order,session,gender,date,expName,psychopyVersion,OS,frameRate,key_resp.keys,key_resp.corr,key_resp.rt,touch_resp.x,touch_resp.y,touch_resp.leftButton,touch_resp.midButton,touch_resp.rightButton,touch_resp.time,touch_resp.clicked_name,rt,corr,trials.thisRepN,trials.thisTrialN,trials.thisN,trials.thisIndex,trials.ran,stimImage,stimWord,CorrAns,blocks.thisRepN,blocks.thisTrialN,blocks.thisN,blocks.thisIndex,blocks.ran,conds_file,label_left,label_right
0.247222222,-0.111111111,0,0,0,0,0,0,0,1,1,"You will be presented with words or images to classify into categories using either the 'A' or 'L' key. 
 
Try to go as fast as possible while making as few mistakes as possible. 
",dsf,2,001,male,2022-07-25_13h40.10.806,openIAT,2020.1.0rc3,Linux x86_64,60,,,,,,,,,,,,,,,,,,,,,,,,,,,,
0.247222222,-0.111111111,0,0,0,0,1,1,1,1,2,"Keep in mind: 
 
1) Labels at the top of the screen indicate which catogory goes with which key. 
 
2) Each word or image has a correct catogory classification 
 
3) Keep your index fingers on the A and L keys to enable a rapid response. 
 
4) The test gives no results if you go slow- please try to go as fast as possible 
",dsf,2,001,male,2022-07-25_13h40.10.806,openIAT,2020.1.0rc3,Linux x86_64,60,,,,,,,,,,,,,,,,,,,,,,,,,,,,
,,,,,,,,,,,,dsf,2,001,male,2022-07-25_13h40.10.806,openIAT,2020.1.0rc3,Linux x86_64,60,a,1,1.1916,,,,,,,,1.1916,1,0,0,0,8,1,stimuli/blank.png,Joy,a,,,,,,,,
,,,,,,,,,,,,dsf,2,001,male,2022-07-25_13h40.10.806,openIAT,2020.1.0rc3,Linux x86_64,60,a,0,5.9095,,,,,,,,5.9095,0,0,1,1,9,1,stimuli/blank.png,Nasty,l,,,,,,,,
,,,,,,,,,,,,dsf,2,001,male,2022-07-25_13h40.10.806,openIAT,2020.1.0rc3,Linux x86_64,60,a,1,5.8717,,,,,,,,5.8717,1,0,2,2,6,1,stimuli/blank.png,Love,a,,,,,,,,
,,,,,,,,,,,,dsf,2,001,male,2022-07-25_13h40.10.806,openIAT,2020.1.0rc3,Linux x86_64,60,,0,,0.425925926,-0.3,1,0,0,5.5533,button_right,5.5533,1,0,3,3,5,1,stimuli/blank.png,Agony,l,,,,,,,,
,,,,,,,,,,,,dsf,2,001,male,2022-07-25_13h40.10.806,openIAT,2020.1.0rc3,Linux x86_64,60,,0,,0.364814815,-0.266666667,1,0,0,1.3407,button_right,1.3407,1,0,4,4,3,1,stimuli/blank.png,Hurt,l,,,,,,,,
,,,,,,,,,,,,dsf,2,001,male,2022-07-25_13h40.10.806,openIAT,2020.1.0rc3,Linux x86_64,60,,0,,-0.448148148,-0.25462963,1,0,0,1.6693,button_left,1.6693,1,0,5,5,2,1,stimuli/blank.png,Happy,a,,,,,,,,
,,,,,,,,,,,,dsf,2,001,male,2022-07-25_13h40.10.806,openIAT,2020.1.0rc3,Linux x86_64,60,,0,,-0.308333333,-0.288888889,1,0,0,1.057,button_left,1.057,1,0,6,6,0,1,stimuli/blank.png,Good,a,,,,,,,,
,,,,,,,,,,,,dsf,2,001,male,2022-07-25_13h40.10.806,openIAT,2020.1.0rc3,Linux x86_64,60,,0,,-0.325,-0.285185185,1,0,0,0.9317,button_left,0.9317,1,0,7,7,4,1,stimuli/blank.png,Pleasure,a,,,,,,,,
,,,,,,,,,,,,dsf,2,001,male,2022-07-25_13h40.10.806,openIAT,2020.1.0rc3,Linux x86_64,60,,0,,0.353703704,-0.276851852,1,0,0,1.516,button_right,1.516,1,0,8,8,7,1,stimuli/blank.png,Evil,l,,,,,,,,
,,,,,,,,,,,,dsf,2,001,male,2022-07-25_13h40.10.806,openIAT,2020.1.0rc3,Linux x86_64,60,,0,,0.316666667,-0.299074074,1,0,0,1.9416,button_right,1.9416,1,0,9,9,1,1,stimuli/blank.png,Bad,l,,,,,,,,
,,,,,,,,,,,,dsf,2,001,male,2022-07-25_13h40.10.806,openIAT,2020.1.0rc3,Linux x86_64,60,,,,,,,,,,,,,,,,,,,,,0,0,0,0,1,pos_neg_train.xlsx,"A = 
Positive","L = 
Negative"
,,,,,,,,,,,,dsf,2,001,male,2022-07-25_13h40.10.806,openIAT,2020.1.0rc3,Linux x86_64,60,,0,,-0.330555556,-0.296296296,1,0,0,2.5826,button_left,2.5826,1,0,0,0,6,1,stimuli/black_4.jpg,,a,,,,,,,,
,,,,,,,,,,,,dsf,2,001,male,2022-07-25_13h40.10.806,openIAT,2020.1.0rc3,Linux x86_64,60,,0,,0.344444444,-0.256481481,1,0,0,3.074,button_right,3.074,1,0,1,1,1,1,stimuli/white_1.jpg,,l,,,,,,,,
,,,,,,,,,,,,dsf,2,001,male,2022-07-25_13h40.10.806,openIAT,2020.1.0rc3,Linux x86_64,60,,0,,0.281481481,-0.281481481,1,0,0,1.0581,button_right,1.0581,1,0,2,2,7,1,stimuli/white_4.jpg,,l,,,,,,,,
,,,,,,,,,,,,dsf,2,001,male,2022-07-25_13h40.10.806,openIAT,2020.1.0rc3,Linux x86_64,60,,0,,-0.316666667,-0.293518519,1,0,0,1.1173,button_left,1.1173,1,0,3,3,0,1,stimuli/black_1.jpg,,a,,,,,,,,
,,,,,,,,,,,,dsf,2,001,male,2022-07-25_13h40.10.806,openIAT,2020.1.0rc3,Linux x86_64,60,,0,,0.4,-0.297222222,1,0,0,2.9316,button_right,2.9316,1,0,4,4,3,1,stimuli/white_2.jpg,,l,,,,,,,,
,,,,,,,,,,,,dsf,2,001,male,2022-07-25_13h40.10.806,openIAT,2020.1.0rc3,Linux x86_64,60,,0,,-0.222222222,-0.296296296,1,0,0,3.3158,button_left,3.3158,0,0,5,5,9,1,stimuli/white_5.jpg,,l,,,,,,,,
,,,,,,,,,,,,dsf,2,001,male,2022-07-25_13h40.10.806,openIAT,2020.1.0rc3,Linux x86_64,60,,0,,-0.298148148,-0.266666667,1,0,0,1.1391,button_left,1.1391,1,0,6,6,4,1,stimuli/black_3.jpg,,a,,,,,,,,
,,,,,,,,,,,,dsf,2,001,male,2022-07-25_13h40.10.806,openIAT,2020.1.0rc3,Linux x86_64,60,,0,,-0.303703704,-0.269444444,1,0,0,1.5713,button_left,1.5713,1,0,7,7,8,1,stimuli/black_5.jpg,,a,,,,,,,,
,,,,,,,,,,,,dsf,2,001,male,2022-07-25_13h40.10.806,openIAT,2020.1.0rc3,Linux x86_64,60,,0,,0.332407407,-0.266666667,1,0,0,2.8034,button_right,2.8034,1,0,8,8,5,1,stimuli/white_3.jpg,,l,,,,,,,,
,,,,,,,,,,,,dsf,2,001,male,2022-07-25_13h40.10.806,openIAT,2020.1.0rc3,Linux x86_64,60,,0,,-0.349074074,-0.262037037,1,0,0,1.1909,button_left,1.1909,1,0,9,9,2,1,stimuli/black_2.jpg,,a,,,,,,,,
,,,,,,,,,,,,dsf,2,001,male,2022-07-25_13h40.10.806,openIAT,2020.1.0rc3,Linux x86_64,60,,,,,,,,,,,,,,,,,,,,,0,1,1,1,1,incong_train.xlsx,"A = 
Black","L = 
White"
,,,,,,,,,,,,dsf,2,001,male,2022-07-25_13h40.10.806,openIAT,2020.1.0rc3,Linux x86_64,60,,0,,-0.328703704,-0.284259259,1,0,0,2.456,button_left,2.456,1,0,0,0,12,1,stimuli/blank.png,Happy,a,,,,,,,,
,,,,,,,,,,,,dsf,2,001,male,2022-07-25_13h40.10.806,openIAT,2020.1.0rc3,Linux x86_64,60,,0,,0.356481481,-0.29537037,1,0,0,1.4919,button_right,1.4919,1,0,1,1,7,1,stimuli/white_4.jpg,,l,,,,,,,,
,,,,,,,,,,,,dsf,2,001,male,2022-07-25_13h40.10.806,openIAT,2020.1.0rc3,Linux x86_64,60,,0,,-0.296296296,-0.272222222,1,0,0,1.6128,button_left,1.6128,1,0,2,2,2,1,stimuli/black_2.jpg,,a,,,,,,,,
,,,,,,,,,,,,dsf,2,001,male,2022-07-25_13h40.10.806,openIAT,2020.1.0rc3,Linux x86_64,60,,0,,-0.271296296,-0.281481481,0,0,1,0.8235,button_left,0.8235,1,0,3,3,4,1,stimuli/black_3.jpg,,a,,,,,,,,
,,,,,,,,,,,,dsf,2,001,male,2022-07-25_13h40.10.806,openIAT,2020.1.0rc3,Linux x86_64,60,,0,,0.309259259,-0.269444444,1,0,1,3.4783,button_right,3.4783,1,0,4,4,3,1,stimuli/white_2.jpg,,l,,,,,,,,
,,,,,,,,,,,,dsf,2,001,male,2022-07-25_13h40.10.806,openIAT,2020.1.0rc3,Linux x86_64,60,,0,,0.314814815,-0.244444444,1,0,1,1.096,button_right,1.096,1,0,5,5,5,1,stimuli/white_3.jpg,,l,,,,,,,,
,,,,,,,,,,,,dsf,2,001,male,2022-07-25_13h40.10.806,openIAT,2020.1.0rc3,Linux x86_64,60,,0,,-0.32962963,-0.308333333,1,0,1,1.2659,button_left,1.2659,1,0,6,6,10,1,stimuli/blank.png,Good,a,,,,,,,,
,,,,,,,,,,,,dsf,2,001,male,2022-07-25_13h40.10.806,openIAT,2020.1.0rc3,Linux x86_64,60,,0,,-0.356481481,-0.293518519,1,0,1,0.9939,button_left,0.9939,1,0,7,7,8,1,stimuli/black_5.jpg,,a,,,,,,,,
,,,,,,,,,,,,dsf,2,001,male,2022-07-25_13h40.10.806,openIAT,2020.1.0rc3,Linux x86_64,60,,0,,-0.37962963,-0.325,1,0,1,9.5436,button_left,9.5436,1,0,8,8,0,1,stimuli/black_1.jpg,,a,,,,,,,,
,,,,,,,,,,,,dsf,2,001,male,2022-07-25_13h40.10.806,openIAT,2020.1.0rc3,Linux x86_64,60,,0,,0.409259259,-0.275925926,1,0,1,4.8065,button_right,4.8065,0,0,9,9,18,1,stimuli/blank.png,Joy,a,,,,,,,,
,,,,,,,,,,,,dsf,2,001,male,2022-07-25_13h40.10.806,openIAT,2020.1.0rc3,Linux x86_64,60,,0,,0.315740741,-0.305555556,1,0,1,1.4601,button_right,1.4601,1,0,10,10,19,1,stimuli/blank.png,Nasty,l,,,,,,,,
,,,,,,,,,,,,dsf,2,001,male,2022-07-25_13h40.10.806,openIAT,2020.1.0rc3,Linux x86_64,60,,0,,-0.401851852,-0.336111111,1,0,1,0.8643,button_left,0.8643,1,0,11,11,6,1,stimuli/black_4.jpg,,a,,,,,,,,
,,,,,,,,,,,,dsf,2,001,male,2022-07-25_13h40.10.806,openIAT,2020.1.0rc3,Linux x86_64,60,,0,,0.393518519,-0.305555556,1,0,1,1.7928,button_right,1.7928,1,0,12,12,15,1,stimuli/blank.png,Agony,l,,,,,,,,
,,,,,,,,,,,,dsf,2,001,male,2022-07-25_13h40.10.806,openIAT,2020.1.0rc3,Linux x86_64,60,,0,,-0.263888889,-0.311111111,1,0,1,1.5206,button_left,1.5206,1,0,13,13,16,1,stimuli/blank.png,Love,a,,,,,,,,
,,,,,,,,,,,,dsf,2,001,male,2022-07-25_13h40.10.806,openIAT,2020.1.0rc3,Linux x86_64,60,,0,,0.30462963,-0.269444444,1,0,1,3.565,button_right,3.565,1,0,14,14,13,1,stimuli/blank.png,Hurt,l,,,,,,,,
,,,,,,,,,,,,dsf,2,001,male,2022-07-25_13h40.10.806,openIAT,2020.1.0rc3,Linux x86_64,60,,0,,-0.360185185,-0.290740741,1,0,1,2.0152,button_left,2.0152,1,0,15,15,14,1,stimuli/blank.png,Pleasure,a,,,,,,,,
,,,,,,,,,,,,dsf,2,001,male,2022-07-25_13h40.10.806,openIAT,2020.1.0rc3,Linux x86_64,60,,0,,0.413888889,-0.321296296,1,0,1,2.5246,button_right,2.5246,1,0,16,16,11,1,stimuli/blank.png,Bad,l,,,,,,,,
,,,,,,,,,,,,dsf,2,001,male,2022-07-25_13h40.10.806,openIAT,2020.1.0rc3,Linux x86_64,60,,0,,0.335185185,-0.316666667,1,0,1,1.7879,button_right,1.7879,1,0,17,17,1,1,stimuli/white_1.jpg,,l,,,,,,,,
,,,,,,,,,,,,dsf,2,001,male,2022-07-25_13h40.10.806,openIAT,2020.1.0rc3,Linux x86_64,60,,0,,0.342592593,-0.271296296,1,0,1,2.5341,button_right,2.5341,1,0,18,18,9,1,stimuli/white_5.jpg,,l,,,,,,,,
,,,,,,,,,,,,dsf,2,001,male,2022-07-25_13h40.10.806,openIAT,2020.1.0rc3,Linux x86_64,60,,0,,-0.469444444,-0.338888889,1,0,1,1.1366,button_left,1.1366,0,0,19,19,17,1,stimuli/blank.png,Evil,l,,,,,,,,
,,,,,,,,,,,,dsf,2,001,male,2022-07-25_13h40.10.806,openIAT,2020.1.0rc3,Linux x86_64,60,,,,,,,,,,,,,,,,,,,,,0,2,2,2,1,incong_test.xlsx,"A = 
Black or 
Positive","L = 
White or 
Negative"
,,,,,,,,,,,,dsf,2,001,male,2022-07-25_13h40.10.806,openIAT,2020.1.0rc3,Linux x86_64,60,,0,,-0.333333333,-0.24537037,1,0,1,5.3589,button_left,5.3589,1,0,0,0,1,1,stimuli/white_1.jpg,NaN,a,,,,,,,,
,,,,,,,,,,,,dsf,2,001,male,2022-07-25_13h40.10.806,openIAT,2020.1.0rc3,Linux x86_64,60,,0,,-0.312962963,-0.25,1,0,1,1.5311,button_left,1.5311,1,0,1,1,5,1,stimuli/white_3.jpg,NaN,a,,,,,,,,
,,,,,,,,,,,,dsf,2,001,male,2022-07-25_13h40.10.806,openIAT,2020.1.0rc3,Linux x86_64,60,,0,,0.549074074,-0.291666667,1,0,1,2.1075,button_right,2.1075,1,0,2,2,2,1,stimuli/black_2.jpg,NaN,l,,,,,,,,
,,,,,,,,,,,,dsf,2,001,male,2022-07-25_13h40.10.806,openIAT,2020.1.0rc3,Linux x86_64,60,,0,,0.35,-0.286111111,1,0,1,1.0948,button_right,1.0948,1,0,3,3,0,1,stimuli/black_1.jpg,NaN,l,,,,,,,,
,,,,,,,,,,,,dsf,2,001,male,2022-07-25_13h40.10.806,openIAT,2020.1.0rc3,Linux x86_64,60,,0,,-0.353703704,-0.281481481,1,0,1,3.906,button_left,3.906,1,0,4,4,3,1,stimuli/white_2.jpg,NaN,a,,,,,,,,
,,,,,,,,,,,,dsf,2,001,male,2022-07-25_13h40.10.806,openIAT,2020.1.0rc3,Linux x86_64,60,,0,,0.378703704,-0.262037037,1,0,1,3.2462,button_right,3.2462,1,0,5,5,6,1,stimuli/black_4.jpg,NaN,l,,,,,,,,
,,,,,,,,,,,,dsf,2,001,male,2022-07-25_13h40.10.806,openIAT,2020.1.0rc3,Linux x86_64,60,,0,,0.323148148,-0.287037037,1,0,1,1.6097,button_right,1.6097,1,0,6,6,8,1,stimuli/black_5.jpg,NaN,l,,,,,,,,
,,,,,,,,,,,,dsf,2,001,male,2022-07-25_13h40.10.806,openIAT,2020.1.0rc3,Linux x86_64,60,,0,,-0.324074074,-0.265740741,1,0,1,3.4314,button_left,3.4314,1,0,7,7,7,1,stimuli/white_4.jpg,NaN,a,,,,,,,,
,,,,,,,,,,,,dsf,2,001,male,2022-07-25_13h40.10.806,openIAT,2020.1.0rc3,Linux x86_64,60,,0,,-0.259259259,-0.281481481,1,0,1,1.2058,button_left,1.2058,1,0,8,8,9,1,stimuli/white_5.jpg,NaN,a,,,,,,,,
,,,,,,,,,,,,dsf,2,001,male,2022-07-25_13h40.10.806,openIAT,2020.1.0rc3,Linux x86_64,60,,0,,0.389814815,-0.286111111,1,0,1,17.991,button_right,17.991,1,0,9,9,4,1,stimuli/black_3.jpg,NaN,l,,,,,,,,
,,,,,,,,,,,,dsf,2,001,male,2022-07-25_13h40.10.806,openIAT,2020.1.0rc3,Linux x86_64,60,,,,,,,,,,,,,,,,,,,,,0,3,3,3,1,cong_train.xlsx,"A = 
White","L = 
Black"
,,,,,,,,,,,,dsf,2,001,male,2022-07-25_13h40.10.806,openIAT,2020.1.0rc3,Linux x86_64,60,,0,,-0.367592593,-0.29537037,1,0,1,1.2399,button_left,1.2399,1,0,0,0,14,1,stimuli/blank.png,Pleasure,a,,,,,,,,
,,,,,,,,,,,,dsf,2,001,male,2022-07-25_13h40.10.806,openIAT,2020.1.0rc3,Linux x86_64,60,,0,,0.316666667,-0.306481481,1,0,1,1.2818,button_right,1.2818,1,0,1,1,4,1,stimuli/black_3.jpg,NaN,l,,,,,,,,
,,,,,,,,,,,,dsf,2,001,male,2022-07-25_13h40.10.806,openIAT,2020.1.0rc3,Linux x86_64,60,,0,,0.493518519,-0.341666667,1,0,1,1.4185,button_right,1.4185,1,0,2,2,17,1,stimuli/blank.png,Evil,l,,,,,,,,
,,,,,,,,,,,,dsf,2,001,male,2022-07-25_13h40.10.806,openIAT,2020.1.0rc3,Linux x86_64,60,,0,,-0.343518519,-0.350925926,1,0,1,1.512,button_left,1.512,1,0,3,3,1,1,stimuli/white_1.jpg,NaN,a,,,,,,,,
,,,,,,,,,,,,dsf,2,001,male,2022-07-25_13h40.10.806,openIAT,2020.1.0rc3,Linux x86_64,60,,0,,0.438888889,-0.288888889,1,0,1,2.344,button_right,2.344,1,0,4,4,19,1,stimuli/blank.png,Nasty,l,,,,,,,,
,,,,,,,,,,,,dsf,2,001,male,2022-07-25_13h40.10.806,openIAT,2020.1.0rc3,Linux x86_64,60,,0,,-0.376851852,-0.335185185,1,0,1,1.36,button_left,1.36,1,0,5,5,16,1,stimuli/blank.png,Love,a,,,,,,,,
,,,,,,,,,,,,dsf,2,001,male,2022-07-25_13h40.10.806,openIAT,2020.1.0rc3,Linux x86_64,60,,0,,0.480555556,-0.288888889,1,0,1,2.5769,button_right,2.5769,1,0,6,6,8,1,stimuli/black_5.jpg,NaN,l,,,,,,,,
,,,,,,,,,,,,dsf,2,001,male,2022-07-25_13h40.10.806,openIAT,2020.1.0rc3,Linux x86_64,60,,0,,0.311111111,-0.275925926,1,0,1,4.5029,button_right,4.5029,1,0,7,7,13,1,stimuli/blank.png,Hurt,l,,,,,,,,
,,,,,,,,,,,,dsf,2,001,male,2022-07-25_13h40.10.806,openIAT,2020.1.0rc3,Linux x86_64,60,,0,,-0.323148148,-0.361111111,1,0,1,1.1322,button_left,1.1322,1,0,8,8,18,1,stimuli/blank.png,Joy,a,,,,,,,,
,,,,,,,,,,,,dsf,2,001,male,2022-07-25_13h40.10.806,openIAT,2020.1.0rc3,Linux x86_64,60,,0,,-0.321296296,-0.321296296,1,0,1,1.3209,button_left,1.3209,1,0,9,9,12,1,stimuli/blank.png,Happy,a,,,,,,,,
,,,,,,,,,,,,dsf,2,001,male,2022-07-25_13h40.10.806,openIAT,2020.1.0rc3,Linux x86_64,60,,0,,-0.371296296,-0.330555556,1,0,1,2.9121,button_left,2.9121,1,0,10,10,5,1,stimuli/white_3.jpg,NaN,a,,,,,,,,
,,,,,,,,,,,,dsf,2,001,male,2022-07-25_13h40.10.806,openIAT,2020.1.0rc3,Linux x86_64,60,,0,,0.287037037,-0.281481481,1,0,1,2.1547,button_right,2.1547,1,0,11,11,11,1,stimuli/blank.png,Bad,l,,,,,,,,
,,,,,,,,,,,,dsf,2,001,male,2022-07-25_13h40.10.806,openIAT,2020.1.0rc3,Linux x86_64,60,,0,,0.368518519,-0.303703704,1,0,1,2.4102,button_right,2.4102,1,0,12,12,15,1,stimuli/blank.png,Agony,l,,,,,,,,
,,,,,,,,,,,,dsf,2,001,male,2022-07-25_13h40.10.806,openIAT,2020.1.0rc3,Linux x86_64,60,,0,,-0.351851852,-0.339814815,1,0,1,1.4459,button_left,1.4459,0,0,13,13,0,1,stimuli/black_1.jpg,NaN,l,,,,,,,,
,,,,,,,,,,,,dsf,2,001,male,2022-07-25_13h40.10.806,openIAT,2020.1.0rc3,Linux x86_64,60,,0,,-0.314814815,-0.271296296,1,0,1,0.9981,button_left,0.9981,1,0,14,14,7,1,stimuli/white_4.jpg,NaN,a,,,,,,,,
,,,,,,,,,,,,dsf,2,001,male,2022-07-25_13h40.10.806,openIAT,2020.1.0rc3,Linux x86_64,60,,0,,-0.392592593,-0.255555556,1,0,1,1.0624,button_left,1.0624,1,0,15,15,9,1,stimuli/white_5.jpg,NaN,a,,,,,,,,
,,,,,,,,,,,,dsf,2,001,male,2022-07-25_13h40.10.806,openIAT,2020.1.0rc3,Linux x86_64,60,,0,,0.448148148,-0.288888889,1,0,1,1.1623,button_right,1.1623,1,0,16,16,6,1,stimuli/black_4.jpg,NaN,l,,,,,,,,
,,,,,,,,,,,,dsf,2,001,male,2022-07-25_13h40.10.806,openIAT,2020.1.0rc3,Linux x86_64,60,,0,,-0.489814815,-0.283333333,1,0,1,1.7876,button_left,1.7876,1,0,17,17,3,1,stimuli/white_2.jpg,NaN,a,,,,,,,,
,,,,,,,,,,,,dsf,2,001,male,2022-07-25_13h40.10.806,openIAT,2020.1.0rc3,Linux x86_64,60,,0,,0.3,-0.268518519,1,0,1,1.0693,button_right,1.0693,1,0,18,18,2,1,stimuli/black_2.jpg,NaN,l,,,,,,,,
,,,,,,,,,,,,dsf,2,001,male,2022-07-25_13h40.10.806,openIAT,2020.1.0rc3,Linux x86_64,60,,0,,-0.375925926,-0.330555556,1,0,1,2.113,button_left,2.113,1,0,19,19,10,1,stimuli/blank.png,Good,a,,,,,,,,
