instr_done_touch.x,instr_done_touch.y,instr_done_touch.leftButton,instr_done_touch.midButton,instr_done_touch.rightButton,instr_done_touch.clicked_name,instruct_pages.thisRepN,instruct_pages.thisTrialN,instruct_pages.thisN,instruct_pages.thisIndex,instruct_pages.ran,pageN,instruct_text,participant,order,session,gender,date,expName,psychopyVersion,OS,frameRate,key_resp.keys,key_resp.corr,key_resp.rt,touch_resp.x,touch_resp.y,touch_resp.leftButton,touch_resp.midButton,touch_resp.rightButton,touch_resp.time,touch_resp.clicked_name,rt,corr,trials.thisRepN,trials.thisTrialN,trials.thisN,trials.thisIndex,trials.ran,stimImage,stimWord,CorrAns,blocks.thisRepN,blocks.thisTrialN,blocks.thisN,blocks.thisIndex,blocks.ran,conds_file,label_left,label_right
0.069168837,-0.424741889,1,0,0,instr_done_button,0,0,0,0,1,1,"You will be presented with words or images to classify into categories using either the 'A' or 'L' key. 
 
Try to go as fast as possible while making as few mistakes as possible. 
",dwwd,1,001,male,2024-07-26_14h33.38.817,openIAT,2020.1.0rc3,MacIntel,60,,,,,,,,,,,,,,,,,,,,,,,,,,,,
0.068483548,-0.424741889,1,0,0,instr_done_button,0,1,1,1,1,2,"Keep in mind: 
 
1) Labels at the top of the screen indicate which catogory goes with which key. 
 
2) Each word or image has a correct catogory classification 
 
3) Keep your index fingers on the A and L keys to enable a rapid response. 
 
4) The test gives no results if you go slow- please try to go as fast as possible 
",dwwd,1,001,male,2024-07-26_14h33.38.817,openIAT,2020.1.0rc3,MacIntel,60,,,,,,,,,,,,,,,,,,,,,,,,,,,,
,,,,,,,,,,,,,dwwd,1,001,male,2024-07-26_14h33.38.817,openIAT,2020.1.0rc3,MacIntel,60,a,0,1.7363,,,,,,,,1.7363,0,0,0,0,9,1,stimuli/blank.png,Nasty,l,,,,,,,,
,,,,,,,,,,,,,dwwd,1,001,male,2024-07-26_14h33.38.817,openIAT,2020.1.0rc3,MacIntel,60,l,1,0.9938,,,,,,,,0.9938,1,0,1,1,7,1,stimuli/blank.png,Evil,l,,,,,,,,
,,,,,,,,,,,,,dwwd,1,001,male,2024-07-26_14h33.38.817,openIAT,2020.1.0rc3,MacIntel,60,a,1,0.7275,,,,,,,,0.7275,1,0,2,2,0,1,stimuli/blank.png,Good,a,,,,,,,,
,,,,,,,,,,,,,dwwd,1,001,male,2024-07-26_14h33.38.817,openIAT,2020.1.0rc3,MacIntel,60,a,1,0.6918,,,,,,,,0.6918,1,0,3,3,8,1,stimuli/blank.png,Joy,a,,,,,,,,
,,,,,,,,,,,,,dwwd,1,001,male,2024-07-26_14h33.38.817,openIAT,2020.1.0rc3,MacIntel,60,a,1,0.8223,,,,,,,,0.8223,1,0,4,4,2,1,stimuli/blank.png,Happy,a,,,,,,,,
,,,,,,,,,,,,,dwwd,1,001,male,2024-07-26_14h33.38.817,openIAT,2020.1.0rc3,MacIntel,60,a,0,0.6549,,,,,,,,0.6549,0,0,5,5,1,1,stimuli/blank.png,Bad,l,,,,,,,,
,,,,,,,,,,,,,dwwd,1,001,male,2024-07-26_14h33.38.817,openIAT,2020.1.0rc3,MacIntel,60,a,1,0.7874,,,,,,,,0.7874,1,0,6,6,6,1,stimuli/blank.png,Love,a,,,,,,,,
,,,,,,,,,,,,,dwwd,1,001,male,2024-07-26_14h33.38.817,openIAT,2020.1.0rc3,MacIntel,60,l,1,1.1314,,,,,,,,1.1314,1,0,7,7,5,1,stimuli/blank.png,Agony,l,,,,,,,,
,,,,,,,,,,,,,dwwd,1,001,male,2024-07-26_14h33.38.817,openIAT,2020.1.0rc3,MacIntel,60,l,1,1.2292,,,,,,,,1.2292,1,0,8,8,3,1,stimuli/blank.png,Hurt,l,,,,,,,,
,,,,,,,,,,,,,dwwd,1,001,male,2024-07-26_14h33.38.817,openIAT,2020.1.0rc3,MacIntel,60,a,1,0.7044,,,,,,,,0.7044,1,0,9,9,4,1,stimuli/blank.png,Pleasure,a,,,,,,,,
,,,,,,,,,,,,,dwwd,1,001,male,2024-07-26_14h33.38.817,openIAT,2020.1.0rc3,MacIntel,60,,,,,,,,,,,,,,,,,,,,,0,0,0,0,1,pos_neg_train.xlsx,"A = 
Positive","L = 
Negative"
,,,,,,,,,,,,,dwwd,1,001,male,2024-07-26_14h33.38.817,openIAT,2020.1.0rc3,MacIntel,60,l,1,1.1874,,,,,,,,1.1874,1,0,0,0,6,1,stimuli/black_4.jpg,NaN,l,,,,,,,,
,,,,,,,,,,,,,dwwd,1,001,male,2024-07-26_14h33.38.817,openIAT,2020.1.0rc3,MacIntel,60,a,1,0.9627,,,,,,,,0.9627,1,0,1,1,5,1,stimuli/white_3.jpg,NaN,a,,,,,,,,
,,,,,,,,,,,,,dwwd,1,001,male,2024-07-26_14h33.38.817,openIAT,2020.1.0rc3,MacIntel,60,a,1,0.5548,,,,,,,,0.5548,1,0,2,2,3,1,stimuli/white_2.jpg,NaN,a,,,,,,,,
,,,,,,,,,,,,,dwwd,1,001,male,2024-07-26_14h33.38.817,openIAT,2020.1.0rc3,MacIntel,60,a,0,1.1753,,,,,,,,1.1753,0,0,3,3,2,1,stimuli/black_2.jpg,NaN,l,,,,,,,,
,,,,,,,,,,,,,dwwd,1,001,male,2024-07-26_14h33.38.817,openIAT,2020.1.0rc3,MacIntel,60,l,1,0.2976,,,,,,,,0.2976,1,0,4,4,8,1,stimuli/black_5.jpg,NaN,l,,,,,,,,
,,,,,,,,,,,,,dwwd,1,001,male,2024-07-26_14h33.38.817,openIAT,2020.1.0rc3,MacIntel,60,a,1,0.6337,,,,,,,,0.6337,1,0,5,5,7,1,stimuli/white_4.jpg,NaN,a,,,,,,,,
,,,,,,,,,,,,,dwwd,1,001,male,2024-07-26_14h33.38.817,openIAT,2020.1.0rc3,MacIntel,60,a,1,1.0052,,,,,,,,1.0052,1,0,6,6,9,1,stimuli/white_5.jpg,NaN,a,,,,,,,,
,,,,,,,,,,,,,dwwd,1,001,male,2024-07-26_14h33.38.817,openIAT,2020.1.0rc3,MacIntel,60,l,1,0.8627,,,,,,,,0.8627,1,0,7,7,0,1,stimuli/black_1.jpg,NaN,l,,,,,,,,
,,,,,,,,,,,,,dwwd,1,001,male,2024-07-26_14h33.38.817,openIAT,2020.1.0rc3,MacIntel,60,a,1,0.6593,,,,,,,,0.6593,1,0,8,8,1,1,stimuli/white_1.jpg,NaN,a,,,,,,,,
,,,,,,,,,,,,,dwwd,1,001,male,2024-07-26_14h33.38.817,openIAT,2020.1.0rc3,MacIntel,60,l,1,0.5994,,,,,,,,0.5994,1,0,9,9,4,1,stimuli/black_3.jpg,NaN,l,,,,,,,,
,,,,,,,,,,,,,dwwd,1,001,male,2024-07-26_14h33.38.817,openIAT,2020.1.0rc3,MacIntel,60,,,,,,,,,,,,,,,,,,,,,0,1,1,1,1,cong_train.xlsx,"A = 
White","L = 
Black"
,,,,,,,,,,,,,dwwd,1,001,male,2024-07-26_14h33.38.817,openIAT,2020.1.0rc3,MacIntel,60,l,1,1.3527,,,,,,,,1.3527,1,0,0,0,13,1,stimuli/blank.png,Hurt,l,,,,,,,,
,,,,,,,,,,,,,dwwd,1,001,male,2024-07-26_14h33.38.817,openIAT,2020.1.0rc3,MacIntel,60,l,1,0.692,,,,,,,,0.692,1,0,1,1,4,1,stimuli/black_3.jpg,NaN,l,,,,,,,,
,,,,,,,,,,,,,dwwd,1,001,male,2024-07-26_14h33.38.817,openIAT,2020.1.0rc3,MacIntel,60,l,1,0.662,,,,,,,,0.662,1,0,2,2,0,1,stimuli/black_1.jpg,NaN,l,,,,,,,,
,,,,,,,,,,,,,dwwd,1,001,male,2024-07-26_14h33.38.817,openIAT,2020.1.0rc3,MacIntel,60,a,1,0.5724,,,,,,,,0.5724,1,0,3,3,9,1,stimuli/white_5.jpg,NaN,a,,,,,,,,
,,,,,,,,,,,,,dwwd,1,001,male,2024-07-26_14h33.38.817,openIAT,2020.1.0rc3,MacIntel,60,l,0,0.5669,,,,,,,,0.5669,0,0,4,4,5,1,stimuli/white_3.jpg,NaN,a,,,,,,,,
,,,,,,,,,,,,,dwwd,1,001,male,2024-07-26_14h33.38.817,openIAT,2020.1.0rc3,MacIntel,60,a,0,0.252,,,,,,,,0.252,0,0,5,5,8,1,stimuli/black_5.jpg,NaN,l,,,,,,,,
,,,,,,,,,,,,,dwwd,1,001,male,2024-07-26_14h33.38.817,openIAT,2020.1.0rc3,MacIntel,60,l,1,1.4289,,,,,,,,1.4289,1,0,6,6,17,1,stimuli/blank.png,Evil,l,,,,,,,,
,,,,,,,,,,,,,dwwd,1,001,male,2024-07-26_14h33.38.817,openIAT,2020.1.0rc3,MacIntel,60,l,1,0.6537,,,,,,,,0.6537,1,0,7,7,11,1,stimuli/blank.png,Bad,l,,,,,,,,
,,,,,,,,,,,,,dwwd,1,001,male,2024-07-26_14h33.38.817,openIAT,2020.1.0rc3,MacIntel,60,a,1,0.7854,,,,,,,,0.7854,1,0,8,8,1,1,stimuli/white_1.jpg,NaN,a,,,,,,,,
,,,,,,,,,,,,,dwwd,1,001,male,2024-07-26_14h33.38.817,openIAT,2020.1.0rc3,MacIntel,60,a,1,1.0162,,,,,,,,1.0162,1,0,9,9,18,1,stimuli/blank.png,Joy,a,,,,,,,,
,,,,,,,,,,,,,dwwd,1,001,male,2024-07-26_14h33.38.817,openIAT,2020.1.0rc3,MacIntel,60,a,1,0.4941,,,,,,,,0.4941,1,0,10,10,14,1,stimuli/blank.png,Pleasure,a,,,,,,,,
,,,,,,,,,,,,,dwwd,1,001,male,2024-07-26_14h33.38.817,openIAT,2020.1.0rc3,MacIntel,60,l,0,0.4877,,,,,,,,0.4877,0,0,11,11,7,1,stimuli/white_4.jpg,NaN,a,,,,,,,,
,,,,,,,,,,,,,dwwd,1,001,male,2024-07-26_14h33.38.817,openIAT,2020.1.0rc3,MacIntel,60,l,1,0.5878,,,,,,,,0.5878,1,0,12,12,2,1,stimuli/black_2.jpg,NaN,l,,,,,,,,
,,,,,,,,,,,,,dwwd,1,001,male,2024-07-26_14h33.38.817,openIAT,2020.1.0rc3,MacIntel,60,a,1,0.6377,,,,,,,,0.6377,1,0,13,13,16,1,stimuli/blank.png,Love,a,,,,,,,,
,,,,,,,,,,,,,dwwd,1,001,male,2024-07-26_14h33.38.817,openIAT,2020.1.0rc3,MacIntel,60,l,0,0.5566,,,,,,,,0.5566,0,0,14,14,10,1,stimuli/blank.png,Good,a,,,,,,,,
,,,,,,,,,,,,,dwwd,1,001,male,2024-07-26_14h33.38.817,openIAT,2020.1.0rc3,MacIntel,60,l,1,0.6203,,,,,,,,0.6203,1,0,15,15,15,1,stimuli/blank.png,Agony,l,,,,,,,,
,,,,,,,,,,,,,dwwd,1,001,male,2024-07-26_14h33.38.817,openIAT,2020.1.0rc3,MacIntel,60,l,1,0.6682,,,,,,,,0.6682,1,0,16,16,19,1,stimuli/blank.png,Nasty,l,,,,,,,,
,,,,,,,,,,,,,dwwd,1,001,male,2024-07-26_14h33.38.817,openIAT,2020.1.0rc3,MacIntel,60,l,1,0.6083,,,,,,,,0.6083,1,0,17,17,6,1,stimuli/black_4.jpg,NaN,l,,,,,,,,
,,,,,,,,,,,,,dwwd,1,001,male,2024-07-26_14h33.38.817,openIAT,2020.1.0rc3,MacIntel,60,a,1,0.5529,,,,,,,,0.5529,1,0,18,18,3,1,stimuli/white_2.jpg,NaN,a,,,,,,,,
,,,,,,,,,,,,,dwwd,1,001,male,2024-07-26_14h33.38.817,openIAT,2020.1.0rc3,MacIntel,60,a,1,0.584,,,,,,,,0.584,1,0,19,19,12,1,stimuli/blank.png,Happy,a,,,,,,,,
,,,,,,,,,,,,,dwwd,1,001,male,2024-07-26_14h33.38.817,openIAT,2020.1.0rc3,MacIntel,60,,,,,,,,,,,,,,,,,,,,,0,2,2,2,1,cong_test.xlsx,"A = 
White or 
Positive","L = 
Black or 
Negative"
,,,,,,,,,,,,,dwwd,1,001,male,2024-07-26_14h33.38.817,openIAT,2020.1.0rc3,MacIntel,60,l,0,0.5885,,,,,,,,0.5885,0,0,0,0,0,1,stimuli/black_1.jpg,,a,,,,,,,,
,,,,,,,,,,,,,dwwd,1,001,male,2024-07-26_14h33.38.817,openIAT,2020.1.0rc3,MacIntel,60,l,0,1.8665,,,,,,,,1.8665,0,0,1,1,6,1,stimuli/black_4.jpg,,a,,,,,,,,
,,,,,,,,,,,,,dwwd,1,001,male,2024-07-26_14h33.38.817,openIAT,2020.1.0rc3,MacIntel,60,l,1,0.955,,,,,,,,0.955,1,0,2,2,1,1,stimuli/white_1.jpg,,l,,,,,,,,
,,,,,,,,,,,,,dwwd,1,001,male,2024-07-26_14h33.38.817,openIAT,2020.1.0rc3,MacIntel,60,l,1,1.5038,,,,,,,,1.5038,1,0,3,3,9,1,stimuli/white_5.jpg,,l,,,,,,,,
,,,,,,,,,,,,,dwwd,1,001,male,2024-07-26_14h33.38.817,openIAT,2020.1.0rc3,MacIntel,60,a,1,0.8264,,,,,,,,0.8264,1,0,4,4,2,1,stimuli/black_2.jpg,,a,,,,,,,,
,,,,,,,,,,,,,dwwd,1,001,male,2024-07-26_14h33.38.817,openIAT,2020.1.0rc3,MacIntel,60,l,1,0.898,,,,,,,,0.898,1,0,5,5,7,1,stimuli/white_4.jpg,,l,,,,,,,,
,,,,,,,,,,,,,dwwd,1,001,male,2024-07-26_14h33.38.817,openIAT,2020.1.0rc3,MacIntel,60,a,1,1.0974,,,,,,,,1.0974,1,0,6,6,4,1,stimuli/black_3.jpg,,a,,,,,,,,
,,,,,,,,,,,,,dwwd,1,001,male,2024-07-26_14h33.38.817,openIAT,2020.1.0rc3,MacIntel,60,l,1,0.7058,,,,,,,,0.7058,1,0,7,7,3,1,stimuli/white_2.jpg,,l,,,,,,,,
,,,,,,,,,,,,,dwwd,1,001,male,2024-07-26_14h33.38.817,openIAT,2020.1.0rc3,MacIntel,60,a,1,0.9566,,,,,,,,0.9566,1,0,8,8,8,1,stimuli/black_5.jpg,,a,,,,,,,,
,,,,,,,,,,,,,dwwd,1,001,male,2024-07-26_14h33.38.817,openIAT,2020.1.0rc3,MacIntel,60,l,1,0.4352,,,,,,,,0.4352,1,0,9,9,5,1,stimuli/white_3.jpg,,l,,,,,,,,
,,,,,,,,,,,,,dwwd,1,001,male,2024-07-26_14h33.38.817,openIAT,2020.1.0rc3,MacIntel,60,,,,,,,,,,,,,,,,,,,,,0,3,3,3,1,incong_train.xlsx,"A = 
Black","L = 
White"
,,,,,,,,,,,,,dwwd,1,001,male,2024-07-26_14h33.38.817,openIAT,2020.1.0rc3,MacIntel,60,a,1,1.3565,,,,,,,,1.3565,1,0,0,0,4,1,stimuli/black_3.jpg,,a,,,,,,,,
,,,,,,,,,,,,,dwwd,1,001,male,2024-07-26_14h33.38.817,openIAT,2020.1.0rc3,MacIntel,60,l,1,0.8639,,,,,,,,0.8639,1,0,1,1,9,1,stimuli/white_5.jpg,,l,,,,,,,,
,,,,,,,,,,,,,dwwd,1,001,male,2024-07-26_14h33.38.817,openIAT,2020.1.0rc3,MacIntel,60,a,1,0.8077,,,,,,,,0.8077,1,0,2,2,14,1,stimuli/blank.png,Pleasure,a,,,,,,,,
,,,,,,,,,,,,,dwwd,1,001,male,2024-07-26_14h33.38.817,openIAT,2020.1.0rc3,MacIntel,60,a,1,1.1204,,,,,,,,1.1204,1,0,3,3,12,1,stimuli/blank.png,Happy,a,,,,,,,,
,,,,,,,,,,,,,dwwd,1,001,male,2024-07-26_14h33.38.817,openIAT,2020.1.0rc3,MacIntel,60,l,1,0.7394,,,,,,,,0.7394,1,0,4,4,1,1,stimuli/white_1.jpg,,l,,,,,,,,
,,,,,,,,,,,,,dwwd,1,001,male,2024-07-26_14h33.38.817,openIAT,2020.1.0rc3,MacIntel,60,a,1,0.5685,,,,,,,,0.5685,1,0,5,5,0,1,stimuli/black_1.jpg,,a,,,,,,,,
,,,,,,,,,,,,,dwwd,1,001,male,2024-07-26_14h33.38.817,openIAT,2020.1.0rc3,MacIntel,60,l,1,0.4042,,,,,,,,0.4042,1,0,6,6,7,1,stimuli/white_4.jpg,,l,,,,,,,,
,,,,,,,,,,,,,dwwd,1,001,male,2024-07-26_14h33.38.817,openIAT,2020.1.0rc3,MacIntel,60,l,1,0.723,,,,,,,,0.723,1,0,7,7,17,1,stimuli/blank.png,Evil,l,,,,,,,,
,,,,,,,,,,,,,dwwd,1,001,male,2024-07-26_14h33.38.817,openIAT,2020.1.0rc3,MacIntel,60,l,1,0.5936,,,,,,,,0.5936,1,0,8,8,3,1,stimuli/white_2.jpg,,l,,,,,,,,
,,,,,,,,,,,,,dwwd,1,001,male,2024-07-26_14h33.38.817,openIAT,2020.1.0rc3,MacIntel,60,a,1,0.4237,,,,,,,,0.4237,1,0,9,9,6,1,stimuli/black_4.jpg,,a,,,,,,,,
,,,,,,,,,,,,,dwwd,1,001,male,2024-07-26_14h33.38.817,openIAT,2020.1.0rc3,MacIntel,60,a,1,0.4866,,,,,,,,0.4866,1,0,10,10,8,1,stimuli/black_5.jpg,,a,,,,,,,,
,,,,,,,,,,,,,dwwd,1,001,male,2024-07-26_14h33.38.817,openIAT,2020.1.0rc3,MacIntel,60,a,1,0.6586,,,,,,,,0.6586,1,0,11,11,18,1,stimuli/blank.png,Joy,a,,,,,,,,
,,,,,,,,,,,,,dwwd,1,001,male,2024-07-26_14h33.38.817,openIAT,2020.1.0rc3,MacIntel,60,l,1,0.4985,,,,,,,,0.4985,1,0,12,12,5,1,stimuli/white_3.jpg,,l,,,,,,,,
,,,,,,,,,,,,,dwwd,1,001,male,2024-07-26_14h33.38.817,openIAT,2020.1.0rc3,MacIntel,60,l,1,0.802,,,,,,,,0.802,1,0,13,13,13,1,stimuli/blank.png,Hurt,l,,,,,,,,
,,,,,,,,,,,,,dwwd,1,001,male,2024-07-26_14h33.38.817,openIAT,2020.1.0rc3,MacIntel,60,l,1,0.5956,,,,,,,,0.5956,1,0,14,14,15,1,stimuli/blank.png,Agony,l,,,,,,,,
,,,,,,,,,,,,,dwwd,1,001,male,2024-07-26_14h33.38.817,openIAT,2020.1.0rc3,MacIntel,60,a,1,0.5197,,,,,,,,0.5197,1,0,15,15,2,1,stimuli/black_2.jpg,,a,,,,,,,,
,,,,,,,,,,,,,dwwd,1,001,male,2024-07-26_14h33.38.817,openIAT,2020.1.0rc3,MacIntel,60,l,0,0.4761,,,,,,,,0.4761,0,0,16,16,10,1,stimuli/blank.png,Good,a,,,,,,,,
,,,,,,,,,,,,,dwwd,1,001,male,2024-07-26_14h33.38.817,openIAT,2020.1.0rc3,MacIntel,60,a,0,0.7292,,,,,,,,0.7292,0,0,17,17,11,1,stimuli/blank.png,Bad,l,,,,,,,,
,,,,,,,,,,,,,dwwd,1,001,male,2024-07-26_14h33.38.817,openIAT,2020.1.0rc3,MacIntel,60,a,1,1.8975,,,,,,,,1.8975,1,0,18,18,16,1,stimuli/blank.png,Love,a,,,,,,,,
,,,,,,,,,,,,,dwwd,1,001,male,2024-07-26_14h33.38.817,openIAT,2020.1.0rc3,MacIntel,60,l,1,0.7631,,,,,,,,0.7631,1,0,19,19,19,1,stimuli/blank.png,Nasty,l,,,,,,,,
