instr_done_touch.x,instr_done_touch.y,instr_done_touch.leftButton,instr_done_touch.midButton,instr_done_touch.rightButton,instr_done_touch.clicked_name,instruct_pages.thisRepN,instruct_pages.thisTrialN,instruct_pages.thisN,instruct_pages.thisIndex,instruct_pages.ran,pageN,instruct_text,participant,order,session,gender,date,expName,psychopyVersion,OS,frameRate,key_resp.keys,key_resp.corr,key_resp.rt,touch_resp.x,touch_resp.y,touch_resp.leftButton,touch_resp.midButton,touch_resp.rightButton,touch_resp.time,touch_resp.clicked_name,rt,corr,trials.thisRepN,trials.thisTrialN,trials.thisN,trials.thisIndex,trials.ran,stimImage,stimWord,CorrAns,blocks.thisRepN,blocks.thisTrialN,blocks.thisN,blocks.thisIndex,blocks.ran,conds_file,label_left,label_right
0.013589503,-0.390346767,1,0,0,instr_done_button,0,0,0,0,1,1,"You will be presented with words or images to classify into categories using either the 'A' or 'L' key. 
 
Try to go as fast as possible while making as few mistakes as possible. 
",efwfw,2,001,male,2022-10-21_15h32.56.511,openIAT,2020.1.0rc3,Win32,60,,,,,,,,,,,,,,,,,,,,,,,,,,,,
0.013589503,-0.390346767,1,0,0,instr_done_button,0,1,1,1,1,2,"Keep in mind: 
 
1) Labels at the top of the screen indicate which catogory goes with which key. 
 
2) Each word or image has a correct catogory classification 
 
3) Keep your index fingers on the A and L keys to enable a rapid response. 
 
4) The test gives no results if you go slow- please try to go as fast as possible 
",efwfw,2,001,male,2022-10-21_15h32.56.511,openIAT,2020.1.0rc3,Win32,60,,,,,,,,,,,,,,,,,,,,,,,,,,,,
,,,,,,,,,,,,,efwfw,2,001,male,2022-10-21_15h32.56.511,openIAT,2020.1.0rc3,Win32,60,a,1,1.2282,,,,,,,,1.2282,1,0,0,0,4,1,stimuli/blank.png,Pleasure,a,,,,,,,,
,,,,,,,,,,,,,efwfw,2,001,male,2022-10-21_15h32.56.511,openIAT,2020.1.0rc3,Win32,60,a,1,1.0652,,,,,,,,1.0652,1,0,1,1,0,1,stimuli/blank.png,Good,a,,,,,,,,
,,,,,,,,,,,,,efwfw,2,001,male,2022-10-21_15h32.56.511,openIAT,2020.1.0rc3,Win32,60,a,1,1.2243,,,,,,,,1.2243,1,0,2,2,6,1,stimuli/blank.png,Love,a,,,,,,,,
,,,,,,,,,,,,,efwfw,2,001,male,2022-10-21_15h32.56.511,openIAT,2020.1.0rc3,Win32,60,l,1,3.8077,,,,,,,,3.8077,1,0,3,3,9,1,stimuli/blank.png,Nasty,l,,,,,,,,
,,,,,,,,,,,,,efwfw,2,001,male,2022-10-21_15h32.56.511,openIAT,2020.1.0rc3,Win32,60,l,1,1.0159,,,,,,,,1.0159,1,0,4,4,5,1,stimuli/blank.png,Agony,l,,,,,,,,
,,,,,,,,,,,,,efwfw,2,001,male,2022-10-21_15h32.56.511,openIAT,2020.1.0rc3,Win32,60,l,1,1.0256,,,,,,,,1.0256,1,0,5,5,3,1,stimuli/blank.png,Hurt,l,,,,,,,,
,,,,,,,,,,,,,efwfw,2,001,male,2022-10-21_15h32.56.511,openIAT,2020.1.0rc3,Win32,60,l,1,0.9613,,,,,,,,0.9613,1,0,6,6,1,1,stimuli/blank.png,Bad,l,,,,,,,,
,,,,,,,,,,,,,efwfw,2,001,male,2022-10-21_15h32.56.511,openIAT,2020.1.0rc3,Win32,60,a,1,0.6561,,,,,,,,0.6561,1,0,7,7,2,1,stimuli/blank.png,Happy,a,,,,,,,,
,,,,,,,,,,,,,efwfw,2,001,male,2022-10-21_15h32.56.511,openIAT,2020.1.0rc3,Win32,60,l,1,0.9561,,,,,,,,0.9561,1,0,8,8,7,1,stimuli/blank.png,Evil,l,,,,,,,,
,,,,,,,,,,,,,efwfw,2,001,male,2022-10-21_15h32.56.511,openIAT,2020.1.0rc3,Win32,60,a,1,0.7414,,,,,,,,0.7414,1,0,9,9,8,1,stimuli/blank.png,Joy,a,,,,,,,,
,,,,,,,,,,,,,efwfw,2,001,male,2022-10-21_15h32.56.511,openIAT,2020.1.0rc3,Win32,60,,,,,,,,,,,,,,,,,,,,,0,0,0,0,1,pos_neg_train.xlsx,"A = 
Positive","L = 
Negative"
,,,,,,,,,,,,,efwfw,2,001,male,2022-10-21_15h32.56.511,openIAT,2020.1.0rc3,Win32,60,l,1,4.6544,,,,,,,,4.6544,1,0,0,0,1,1,stimuli/white_1.jpg,,l,,,,,,,,
,,,,,,,,,,,,,efwfw,2,001,male,2022-10-21_15h32.56.511,openIAT,2020.1.0rc3,Win32,60,l,0,3.0866,,,,,,,,3.0866,0,0,1,1,0,1,stimuli/black_1.jpg,,a,,,,,,,,
,,,,,,,,,,,,,efwfw,2,001,male,2022-10-21_15h32.56.511,openIAT,2020.1.0rc3,Win32,60,a,0,6.3822,,,,,,,,6.3822,0,0,2,2,5,1,stimuli/white_3.jpg,,l,,,,,,,,
,,,,,,,,,,,,,efwfw,2,001,male,2022-10-21_15h32.56.511,openIAT,2020.1.0rc3,Win32,60,l,1,1.5252,,,,,,,,1.5252,1,0,3,3,3,1,stimuli/white_2.jpg,,l,,,,,,,,
,,,,,,,,,,,,,efwfw,2,001,male,2022-10-21_15h32.56.511,openIAT,2020.1.0rc3,Win32,60,a,1,0.8529,,,,,,,,0.8529,1,0,4,4,8,1,stimuli/black_5.jpg,,a,,,,,,,,
,,,,,,,,,,,,,efwfw,2,001,male,2022-10-21_15h32.56.511,openIAT,2020.1.0rc3,Win32,60,a,1,0.7497,,,,,,,,0.7497,1,0,5,5,6,1,stimuli/black_4.jpg,,a,,,,,,,,
,,,,,,,,,,,,,efwfw,2,001,male,2022-10-21_15h32.56.511,openIAT,2020.1.0rc3,Win32,60,l,1,1.1094,,,,,,,,1.1094,1,0,6,6,9,1,stimuli/white_5.jpg,,l,,,,,,,,
,,,,,,,,,,,,,efwfw,2,001,male,2022-10-21_15h32.56.511,openIAT,2020.1.0rc3,Win32,60,a,1,0.8246,,,,,,,,0.8246,1,0,7,7,4,1,stimuli/black_3.jpg,,a,,,,,,,,
,,,,,,,,,,,,,efwfw,2,001,male,2022-10-21_15h32.56.511,openIAT,2020.1.0rc3,Win32,60,a,1,1.2641,,,,,,,,1.2641,1,0,8,8,2,1,stimuli/black_2.jpg,,a,,,,,,,,
,,,,,,,,,,,,,efwfw,2,001,male,2022-10-21_15h32.56.511,openIAT,2020.1.0rc3,Win32,60,a,0,1.2282,,,,,,,,1.2282,0,0,9,9,7,1,stimuli/white_4.jpg,,l,,,,,,,,
,,,,,,,,,,,,,efwfw,2,001,male,2022-10-21_15h32.56.511,openIAT,2020.1.0rc3,Win32,60,,,,,,,,,,,,,,,,,,,,,0,1,1,1,1,incong_train.xlsx,"A = 
Black","L = 
White"
,,,,,,,,,,,,,efwfw,2,001,male,2022-10-21_15h32.56.511,openIAT,2020.1.0rc3,Win32,60,l,1,2.7099,,,,,,,,2.7099,1,0,0,0,19,1,stimuli/blank.png,Nasty,l,,,,,,,,
,,,,,,,,,,,,,efwfw,2,001,male,2022-10-21_15h32.56.511,openIAT,2020.1.0rc3,Win32,60,a,1,1.999,,,,,,,,1.999,1,0,1,1,2,1,stimuli/black_2.jpg,,a,,,,,,,,
,,,,,,,,,,,,,efwfw,2,001,male,2022-10-21_15h32.56.511,openIAT,2020.1.0rc3,Win32,60,l,1,2.26,,,,,,,,2.26,1,0,2,2,11,1,stimuli/blank.png,Bad,l,,,,,,,,
,,,,,,,,,,,,,efwfw,2,001,male,2022-10-21_15h32.56.511,openIAT,2020.1.0rc3,Win32,60,l,1,1.1733,,,,,,,,1.1733,1,0,3,3,15,1,stimuli/blank.png,Agony,l,,,,,,,,
,,,,,,,,,,,,,efwfw,2,001,male,2022-10-21_15h32.56.511,openIAT,2020.1.0rc3,Win32,60,a,1,0.911,,,,,,,,0.911,1,0,4,4,16,1,stimuli/blank.png,Love,a,,,,,,,,
,,,,,,,,,,,,,efwfw,2,001,male,2022-10-21_15h32.56.511,openIAT,2020.1.0rc3,Win32,60,a,1,1.2487,,,,,,,,1.2487,1,0,5,5,4,1,stimuli/black_3.jpg,,a,,,,,,,,
,,,,,,,,,,,,,efwfw,2,001,male,2022-10-21_15h32.56.511,openIAT,2020.1.0rc3,Win32,60,l,1,1.7352,,,,,,,,1.7352,1,0,6,6,7,1,stimuli/white_4.jpg,,l,,,,,,,,
,,,,,,,,,,,,,efwfw,2,001,male,2022-10-21_15h32.56.511,openIAT,2020.1.0rc3,Win32,60,a,1,0.9153,,,,,,,,0.9153,1,0,7,7,12,1,stimuli/blank.png,Happy,a,,,,,,,,
,,,,,,,,,,,,,efwfw,2,001,male,2022-10-21_15h32.56.511,openIAT,2020.1.0rc3,Win32,60,a,1,0.9027,,,,,,,,0.9027,1,0,8,8,14,1,stimuli/blank.png,Pleasure,a,,,,,,,,
,,,,,,,,,,,,,efwfw,2,001,male,2022-10-21_15h32.56.511,openIAT,2020.1.0rc3,Win32,60,a,1,0.9151,,,,,,,,0.9151,1,0,9,9,0,1,stimuli/black_1.jpg,,a,,,,,,,,
,,,,,,,,,,,,,efwfw,2,001,male,2022-10-21_15h32.56.511,openIAT,2020.1.0rc3,Win32,60,a,1,0.6104,,,,,,,,0.6104,1,0,10,10,10,1,stimuli/blank.png,Good,a,,,,,,,,
,,,,,,,,,,,,,efwfw,2,001,male,2022-10-21_15h32.56.511,openIAT,2020.1.0rc3,Win32,60,a,1,1.1038,,,,,,,,1.1038,1,0,11,11,6,1,stimuli/black_4.jpg,,a,,,,,,,,
,,,,,,,,,,,,,efwfw,2,001,male,2022-10-21_15h32.56.511,openIAT,2020.1.0rc3,Win32,60,l,1,0.8281,,,,,,,,0.8281,1,0,12,12,1,1,stimuli/white_1.jpg,,l,,,,,,,,
,,,,,,,,,,,,,efwfw,2,001,male,2022-10-21_15h32.56.511,openIAT,2020.1.0rc3,Win32,60,a,1,4.7394,,,,,,,,4.7394,1,0,13,13,18,1,stimuli/blank.png,Joy,a,,,,,,,,
,,,,,,,,,,,,,efwfw,2,001,male,2022-10-21_15h32.56.511,openIAT,2020.1.0rc3,Win32,60,l,1,0.7955,,,,,,,,0.7955,1,0,14,14,13,1,stimuli/blank.png,Hurt,l,,,,,,,,
,,,,,,,,,,,,,efwfw,2,001,male,2022-10-21_15h32.56.511,openIAT,2020.1.0rc3,Win32,60,l,1,0.9231,,,,,,,,0.9231,1,0,15,15,9,1,stimuli/white_5.jpg,,l,,,,,,,,
,,,,,,,,,,,,,efwfw,2,001,male,2022-10-21_15h32.56.511,openIAT,2020.1.0rc3,Win32,60,a,1,0.6261,,,,,,,,0.6261,1,0,16,16,8,1,stimuli/black_5.jpg,,a,,,,,,,,
,,,,,,,,,,,,,efwfw,2,001,male,2022-10-21_15h32.56.511,openIAT,2020.1.0rc3,Win32,60,l,1,0.8544,,,,,,,,0.8544,1,0,17,17,3,1,stimuli/white_2.jpg,,l,,,,,,,,
,,,,,,,,,,,,,efwfw,2,001,male,2022-10-21_15h32.56.511,openIAT,2020.1.0rc3,Win32,60,l,1,1.7998,,,,,,,,1.7998,1,0,18,18,5,1,stimuli/white_3.jpg,,l,,,,,,,,
,,,,,,,,,,,,,efwfw,2,001,male,2022-10-21_15h32.56.511,openIAT,2020.1.0rc3,Win32,60,l,1,0.8214,,,,,,,,0.8214,1,0,19,19,17,1,stimuli/blank.png,Evil,l,,,,,,,,
,,,,,,,,,,,,,efwfw,2,001,male,2022-10-21_15h32.56.511,openIAT,2020.1.0rc3,Win32,60,,,,,,,,,,,,,,,,,,,,,0,2,2,2,1,incong_test.xlsx,"A = 
Black or 
Positive","L = 
White or 
Negative"
,,,,,,,,,,,,,efwfw,2,001,male,2022-10-21_15h32.56.511,openIAT,2020.1.0rc3,Win32,60,l,1,3.8753,,,,,,,,3.8753,1,0,0,0,0,1,stimuli/black_1.jpg,NaN,l,,,,,,,,
,,,,,,,,,,,,,efwfw,2,001,male,2022-10-21_15h32.56.511,openIAT,2020.1.0rc3,Win32,60,a,0,2.1208,,,,,,,,2.1208,0,0,1,1,8,1,stimuli/black_5.jpg,NaN,l,,,,,,,,
,,,,,,,,,,,,,efwfw,2,001,male,2022-10-21_15h32.56.511,openIAT,2020.1.0rc3,Win32,60,l,1,1.6032,,,,,,,,1.6032,1,0,2,2,2,1,stimuli/black_2.jpg,NaN,l,,,,,,,,
,,,,,,,,,,,,,efwfw,2,001,male,2022-10-21_15h32.56.511,openIAT,2020.1.0rc3,Win32,60,a,1,1.3455,,,,,,,,1.3455,1,0,3,3,3,1,stimuli/white_2.jpg,NaN,a,,,,,,,,
,,,,,,,,,,,,,efwfw,2,001,male,2022-10-21_15h32.56.511,openIAT,2020.1.0rc3,Win32,60,l,0,1.3631,,,,,,,,1.3631,0,0,4,4,7,1,stimuli/white_4.jpg,NaN,a,,,,,,,,
,,,,,,,,,,,,,efwfw,2,001,male,2022-10-21_15h32.56.511,openIAT,2020.1.0rc3,Win32,60,l,1,0.9242,,,,,,,,0.9242,1,0,5,5,4,1,stimuli/black_3.jpg,NaN,l,,,,,,,,
,,,,,,,,,,,,,efwfw,2,001,male,2022-10-21_15h32.56.511,openIAT,2020.1.0rc3,Win32,60,a,1,1.3422,,,,,,,,1.3422,1,0,6,6,1,1,stimuli/white_1.jpg,NaN,a,,,,,,,,
,,,,,,,,,,,,,efwfw,2,001,male,2022-10-21_15h32.56.511,openIAT,2020.1.0rc3,Win32,60,a,1,0.9352,,,,,,,,0.9352,1,0,7,7,5,1,stimuli/white_3.jpg,NaN,a,,,,,,,,
,,,,,,,,,,,,,efwfw,2,001,male,2022-10-21_15h32.56.511,openIAT,2020.1.0rc3,Win32,60,a,1,0.7523,,,,,,,,0.7523,1,0,8,8,9,1,stimuli/white_5.jpg,NaN,a,,,,,,,,
,,,,,,,,,,,,,efwfw,2,001,male,2022-10-21_15h32.56.511,openIAT,2020.1.0rc3,Win32,60,l,1,0.6748,,,,,,,,0.6748,1,0,9,9,6,1,stimuli/black_4.jpg,NaN,l,,,,,,,,
,,,,,,,,,,,,,efwfw,2,001,male,2022-10-21_15h32.56.511,openIAT,2020.1.0rc3,Win32,60,,,,,,,,,,,,,,,,,,,,,0,3,3,3,1,cong_train.xlsx,"A = 
White","L = 
Black"
,,,,,,,,,,,,,efwfw,2,001,male,2022-10-21_15h32.56.511,openIAT,2020.1.0rc3,Win32,60,a,1,1.7069,,,,,,,,1.7069,1,0,0,0,9,1,stimuli/white_5.jpg,NaN,a,,,,,,,,
,,,,,,,,,,,,,efwfw,2,001,male,2022-10-21_15h32.56.511,openIAT,2020.1.0rc3,Win32,60,l,1,1.2369,,,,,,,,1.2369,1,0,1,1,2,1,stimuli/black_2.jpg,NaN,l,,,,,,,,
,,,,,,,,,,,,,efwfw,2,001,male,2022-10-21_15h32.56.511,openIAT,2020.1.0rc3,Win32,60,l,1,1.2935,,,,,,,,1.2935,1,0,2,2,11,1,stimuli/blank.png,Bad,l,,,,,,,,
,,,,,,,,,,,,,efwfw,2,001,male,2022-10-21_15h32.56.511,openIAT,2020.1.0rc3,Win32,60,a,1,1.7538,,,,,,,,1.7538,1,0,3,3,7,1,stimuli/white_4.jpg,NaN,a,,,,,,,,
,,,,,,,,,,,,,efwfw,2,001,male,2022-10-21_15h32.56.511,openIAT,2020.1.0rc3,Win32,60,l,0,1.7313,,,,,,,,1.7313,0,0,4,4,3,1,stimuli/white_2.jpg,NaN,a,,,,,,,,
,,,,,,,,,,,,,efwfw,2,001,male,2022-10-21_15h32.56.511,openIAT,2020.1.0rc3,Win32,60,a,1,1.2181,,,,,,,,1.2181,1,0,5,5,10,1,stimuli/blank.png,Good,a,,,,,,,,
,,,,,,,,,,,,,efwfw,2,001,male,2022-10-21_15h32.56.511,openIAT,2020.1.0rc3,Win32,60,l,1,0.8304,,,,,,,,0.8304,1,0,6,6,19,1,stimuli/blank.png,Nasty,l,,,,,,,,
,,,,,,,,,,,,,efwfw,2,001,male,2022-10-21_15h32.56.511,openIAT,2020.1.0rc3,Win32,60,a,1,1.2445,,,,,,,,1.2445,1,0,7,7,16,1,stimuli/blank.png,Love,a,,,,,,,,
,,,,,,,,,,,,,efwfw,2,001,male,2022-10-21_15h32.56.511,openIAT,2020.1.0rc3,Win32,60,a,0,0.9889,,,,,,,,0.9889,0,0,8,8,6,1,stimuli/black_4.jpg,NaN,l,,,,,,,,
,,,,,,,,,,,,,efwfw,2,001,male,2022-10-21_15h32.56.511,openIAT,2020.1.0rc3,Win32,60,a,1,1.6199,,,,,,,,1.6199,1,0,9,9,1,1,stimuli/white_1.jpg,NaN,a,,,,,,,,
,,,,,,,,,,,,,efwfw,2,001,male,2022-10-21_15h32.56.511,openIAT,2020.1.0rc3,Win32,60,l,1,1.9535,,,,,,,,1.9535,1,0,10,10,17,1,stimuli/blank.png,Evil,l,,,,,,,,
,,,,,,,,,,,,,efwfw,2,001,male,2022-10-21_15h32.56.511,openIAT,2020.1.0rc3,Win32,60,l,1,3.2212,,,,,,,,3.2212,1,0,11,11,13,1,stimuli/blank.png,Hurt,l,,,,,,,,
,,,,,,,,,,,,,efwfw,2,001,male,2022-10-21_15h32.56.511,openIAT,2020.1.0rc3,Win32,60,a,1,0.538,,,,,,,,0.538,1,0,12,12,14,1,stimuli/blank.png,Pleasure,a,,,,,,,,
,,,,,,,,,,,,,efwfw,2,001,male,2022-10-21_15h32.56.511,openIAT,2020.1.0rc3,Win32,60,l,1,1.0044,,,,,,,,1.0044,1,0,13,13,4,1,stimuli/black_3.jpg,NaN,l,,,,,,,,
,,,,,,,,,,,,,efwfw,2,001,male,2022-10-21_15h32.56.511,openIAT,2020.1.0rc3,Win32,60,a,1,1.1535,,,,,,,,1.1535,1,0,14,14,12,1,stimuli/blank.png,Happy,a,,,,,,,,
,,,,,,,,,,,,,efwfw,2,001,male,2022-10-21_15h32.56.511,openIAT,2020.1.0rc3,Win32,60,a,1,2.5821,,,,,,,,2.5821,1,0,15,15,5,1,stimuli/white_3.jpg,NaN,a,,,,,,,,
,,,,,,,,,,,,,efwfw,2,001,male,2022-10-21_15h32.56.511,openIAT,2020.1.0rc3,Win32,60,l,1,0.9289,,,,,,,,0.9289,1,0,16,16,8,1,stimuli/black_5.jpg,NaN,l,,,,,,,,
,,,,,,,,,,,,,efwfw,2,001,male,2022-10-21_15h32.56.511,openIAT,2020.1.0rc3,Win32,60,l,1,0.6839,,,,,,,,0.6839,1,0,17,17,0,1,stimuli/black_1.jpg,NaN,l,,,,,,,,
,,,,,,,,,,,,,efwfw,2,001,male,2022-10-21_15h32.56.511,openIAT,2020.1.0rc3,Win32,60,l,1,2.3307,,,,,,,,2.3307,1,0,18,18,15,1,stimuli/blank.png,Agony,l,,,,,,,,
,,,,,,,,,,,,,efwfw,2,001,male,2022-10-21_15h32.56.511,openIAT,2020.1.0rc3,Win32,60,a,1,0.6889,,,,,,,,0.6889,1,0,19,19,18,1,stimuli/blank.png,Joy,a,,,,,,,,
