instr_done_touch.x,instr_done_touch.y,instr_done_touch.leftButton,instr_done_touch.midButton,instr_done_touch.rightButton,instr_done_touch.clicked_name,instruct_pages.thisRepN,instruct_pages.thisTrialN,instruct_pages.thisN,instruct_pages.thisIndex,instruct_pages.ran,pageN,instruct_text,participant,order,session,gender,date,expName,psychopyVersion,OS,frameRate,key_resp.keys,key_resp.corr,key_resp.rt,touch_resp.x,touch_resp.y,touch_resp.leftButton,touch_resp.midButton,touch_resp.rightButton,touch_resp.time,touch_resp.clicked_name,rt,corr,trials.thisRepN,trials.thisTrialN,trials.thisN,trials.thisIndex,trials.ran,stimImage,stimWord,CorrAns,blocks.thisRepN,blocks.thisTrialN,blocks.thisN,blocks.thisIndex,blocks.ran,conds_file,label_left,label_right
0.168055556,-0.364583333,1,0,0,instr_done_button,0,0,0,0,1,1,"You will be presented with words or images to classify into categories using either the 'A' or 'L' key. 
 
Try to go as fast as possible while making as few mistakes as possible. 
",EREN77,2,001,male,2020-10-25_19h59.30.776,openIAT,2020.1.0rc3,Win32,60,,,,,,,,,,,,,,,,,,,,,,,,,,,,
0.060416667,-0.431944444,1,0,0,instr_done_button,0,1,1,1,1,2,"Keep in mind: 
 
1) Labels at the top of the screen indicate which catogory goes with which key. 
 
2) Each word or image has a correct catogory classification 
 
3) Keep your index fingers on the A and L keys to enable a rapid response. 
 
4) The test gives no results if you go slow- please try to go as fast as possible 
",EREN77,2,001,male,2020-10-25_19h59.30.776,openIAT,2020.1.0rc3,Win32,60,,,,,,,,,,,,,,,,,,,,,,,,,,,,
,,,,,,,,,,,,,EREN77,2,001,male,2020-10-25_19h59.30.776,openIAT,2020.1.0rc3,Win32,60,l,1,3.308145,,,,,,,,3.308145,1,0,0,0,5,1,stimuli/blank.png,Agony,l,,,,,,,,
,,,,,,,,,,,,,EREN77,2,001,male,2020-10-25_19h59.30.776,openIAT,2020.1.0rc3,Win32,60,a,1,1.17254,,,,,,,,1.17254,1,0,1,1,4,1,stimuli/blank.png,Pleasure,a,,,,,,,,
,,,,,,,,,,,,,EREN77,2,001,male,2020-10-25_19h59.30.776,openIAT,2020.1.0rc3,Win32,60,a,1,1.092235,,,,,,,,1.092235,1,0,2,2,0,1,stimuli/blank.png,Good,a,,,,,,,,
,,,,,,,,,,,,,EREN77,2,001,male,2020-10-25_19h59.30.776,openIAT,2020.1.0rc3,Win32,60,l,1,0.672205,,,,,,,,0.672205,1,0,3,3,1,1,stimuli/blank.png,Bad,l,,,,,,,,
,,,,,,,,,,,,,EREN77,2,001,male,2020-10-25_19h59.30.776,openIAT,2020.1.0rc3,Win32,60,l,1,1.78432,,,,,,,,1.78432,1,0,4,4,9,1,stimuli/blank.png,Nasty,l,,,,,,,,
,,,,,,,,,,,,,EREN77,2,001,male,2020-10-25_19h59.30.776,openIAT,2020.1.0rc3,Win32,60,a,1,0.76838,,,,,,,,0.76838,1,0,5,5,2,1,stimuli/blank.png,Happy,a,,,,,,,,
,,,,,,,,,,,,,EREN77,2,001,male,2020-10-25_19h59.30.776,openIAT,2020.1.0rc3,Win32,60,l,1,0.84399,,,,,,,,0.84399,1,0,6,6,3,1,stimuli/blank.png,Hurt,l,,,,,,,,
,,,,,,,,,,,,,EREN77,2,001,male,2020-10-25_19h59.30.776,openIAT,2020.1.0rc3,Win32,60,a,1,0.836215,,,,,,,,0.836215,1,0,7,7,8,1,stimuli/blank.png,Joy,a,,,,,,,,
,,,,,,,,,,,,,EREN77,2,001,male,2020-10-25_19h59.30.776,openIAT,2020.1.0rc3,Win32,60,l,1,0.902105,,,,,,,,0.902105,1,0,8,8,7,1,stimuli/blank.png,Evil,l,,,,,,,,
,,,,,,,,,,,,,EREN77,2,001,male,2020-10-25_19h59.30.776,openIAT,2020.1.0rc3,Win32,60,a,1,1.154585,,,,,,,,1.154585,1,0,9,9,6,1,stimuli/blank.png,Love,a,,,,,,,,
,,,,,,,,,,,,,EREN77,2,001,male,2020-10-25_19h59.30.776,openIAT,2020.1.0rc3,Win32,60,,,,,,,,,,,,,,,,,,,,,0,0,0,0,1,pos_neg_train.xlsx,"A = 
Positive","L = 
Negative"
,,,,,,,,,,,,,EREN77,2,001,male,2020-10-25_19h59.30.776,openIAT,2020.1.0rc3,Win32,60,l,1,3.65129,,,,,,,,3.65129,1,0,0,0,9,1,stimuli/white_5.jpg,,l,,,,,,,,
,,,,,,,,,,,,,EREN77,2,001,male,2020-10-25_19h59.30.776,openIAT,2020.1.0rc3,Win32,60,l,1,1.38308,,,,,,,,1.38308,1,0,1,1,3,1,stimuli/white_2.jpg,,l,,,,,,,,
,,,,,,,,,,,,,EREN77,2,001,male,2020-10-25_19h59.30.776,openIAT,2020.1.0rc3,Win32,60,a,1,0.83685,,,,,,,,0.83685,1,0,2,2,2,1,stimuli/black_2.jpg,,a,,,,,,,,
,,,,,,,,,,,,,EREN77,2,001,male,2020-10-25_19h59.30.776,openIAT,2020.1.0rc3,Win32,60,a,1,0.78604,,,,,,,,0.78604,1,0,3,3,6,1,stimuli/black_4.jpg,,a,,,,,,,,
,,,,,,,,,,,,,EREN77,2,001,male,2020-10-25_19h59.30.776,openIAT,2020.1.0rc3,Win32,60,l,1,0.90263,,,,,,,,0.90263,1,0,4,4,7,1,stimuli/white_4.jpg,,l,,,,,,,,
,,,,,,,,,,,,,EREN77,2,001,male,2020-10-25_19h59.30.776,openIAT,2020.1.0rc3,Win32,60,l,1,0.79421,,,,,,,,0.79421,1,0,5,5,1,1,stimuli/white_1.jpg,,l,,,,,,,,
,,,,,,,,,,,,,EREN77,2,001,male,2020-10-25_19h59.30.776,openIAT,2020.1.0rc3,Win32,60,a,1,0.84448,,,,,,,,0.84448,1,0,6,6,4,1,stimuli/black_3.jpg,,a,,,,,,,,
,,,,,,,,,,,,,EREN77,2,001,male,2020-10-25_19h59.30.776,openIAT,2020.1.0rc3,Win32,60,a,1,1.38714,,,,,,,,1.38714,1,0,7,7,8,1,stimuli/black_5.jpg,,a,,,,,,,,
,,,,,,,,,,,,,EREN77,2,001,male,2020-10-25_19h59.30.776,openIAT,2020.1.0rc3,Win32,60,a,1,2.083225,,,,,,,,2.083225,1,0,8,8,0,1,stimuli/black_1.jpg,,a,,,,,,,,
,,,,,,,,,,,,,EREN77,2,001,male,2020-10-25_19h59.30.776,openIAT,2020.1.0rc3,Win32,60,l,1,0.750855,,,,,,,,0.750855,1,0,9,9,5,1,stimuli/white_3.jpg,,l,,,,,,,,
,,,,,,,,,,,,,EREN77,2,001,male,2020-10-25_19h59.30.776,openIAT,2020.1.0rc3,Win32,60,,,,,,,,,,,,,,,,,,,,,0,1,1,1,1,incong_train.xlsx,"A = 
Black","L = 
White"
,,,,,,,,,,,,,EREN77,2,001,male,2020-10-25_19h59.30.776,openIAT,2020.1.0rc3,Win32,60,l,1,1.790045,,,,,,,,1.790045,1,0,0,0,7,1,stimuli/white_4.jpg,,l,,,,,,,,
,,,,,,,,,,,,,EREN77,2,001,male,2020-10-25_19h59.30.776,openIAT,2020.1.0rc3,Win32,60,l,1,2.44612,,,,,,,,2.44612,1,0,1,1,15,1,stimuli/blank.png,Agony,l,,,,,,,,
,,,,,,,,,,,,,EREN77,2,001,male,2020-10-25_19h59.30.776,openIAT,2020.1.0rc3,Win32,60,a,1,0.976525,,,,,,,,0.976525,1,0,2,2,0,1,stimuli/black_1.jpg,,a,,,,,,,,
,,,,,,,,,,,,,EREN77,2,001,male,2020-10-25_19h59.30.776,openIAT,2020.1.0rc3,Win32,60,l,1,1.125625,,,,,,,,1.125625,1,0,3,3,13,1,stimuli/blank.png,Hurt,l,,,,,,,,
,,,,,,,,,,,,,EREN77,2,001,male,2020-10-25_19h59.30.776,openIAT,2020.1.0rc3,Win32,60,l,1,0.78102,,,,,,,,0.78102,1,0,4,4,19,1,stimuli/blank.png,Nasty,l,,,,,,,,
,,,,,,,,,,,,,EREN77,2,001,male,2020-10-25_19h59.30.776,openIAT,2020.1.0rc3,Win32,60,a,1,0.98905,,,,,,,,0.98905,1,0,5,5,8,1,stimuli/black_5.jpg,,a,,,,,,,,
,,,,,,,,,,,,,EREN77,2,001,male,2020-10-25_19h59.30.776,openIAT,2020.1.0rc3,Win32,60,a,1,0.94175,,,,,,,,0.94175,1,0,6,6,16,1,stimuli/blank.png,Love,a,,,,,,,,
,,,,,,,,,,,,,EREN77,2,001,male,2020-10-25_19h59.30.776,openIAT,2020.1.0rc3,Win32,60,a,1,0.79052,,,,,,,,0.79052,1,0,7,7,6,1,stimuli/black_4.jpg,,a,,,,,,,,
,,,,,,,,,,,,,EREN77,2,001,male,2020-10-25_19h59.30.776,openIAT,2020.1.0rc3,Win32,60,a,1,0.84491,,,,,,,,0.84491,1,0,8,8,14,1,stimuli/blank.png,Pleasure,a,,,,,,,,
,,,,,,,,,,,,,EREN77,2,001,male,2020-10-25_19h59.30.776,openIAT,2020.1.0rc3,Win32,60,a,1,0.74029,,,,,,,,0.74029,1,0,9,9,12,1,stimuli/blank.png,Happy,a,,,,,,,,
,,,,,,,,,,,,,EREN77,2,001,male,2020-10-25_19h59.30.776,openIAT,2020.1.0rc3,Win32,60,a,1,0.698085,,,,,,,,0.698085,1,0,10,10,18,1,stimuli/blank.png,Joy,a,,,,,,,,
,,,,,,,,,,,,,EREN77,2,001,male,2020-10-25_19h59.30.776,openIAT,2020.1.0rc3,Win32,60,a,1,0.794935,,,,,,,,0.794935,1,0,11,11,2,1,stimuli/black_2.jpg,,a,,,,,,,,
,,,,,,,,,,,,,EREN77,2,001,male,2020-10-25_19h59.30.776,openIAT,2020.1.0rc3,Win32,60,l,1,1.139465,,,,,,,,1.139465,1,0,12,12,11,1,stimuli/blank.png,Bad,l,,,,,,,,
,,,,,,,,,,,,,EREN77,2,001,male,2020-10-25_19h59.30.776,openIAT,2020.1.0rc3,Win32,60,l,1,1.25672,,,,,,,,1.25672,1,0,13,13,5,1,stimuli/white_3.jpg,,l,,,,,,,,
,,,,,,,,,,,,,EREN77,2,001,male,2020-10-25_19h59.30.776,openIAT,2020.1.0rc3,Win32,60,l,1,0.99719,,,,,,,,0.99719,1,0,14,14,17,1,stimuli/blank.png,Evil,l,,,,,,,,
,,,,,,,,,,,,,EREN77,2,001,male,2020-10-25_19h59.30.776,openIAT,2020.1.0rc3,Win32,60,a,1,0.931865,,,,,,,,0.931865,1,0,15,15,10,1,stimuli/blank.png,Good,a,,,,,,,,
,,,,,,,,,,,,,EREN77,2,001,male,2020-10-25_19h59.30.776,openIAT,2020.1.0rc3,Win32,60,a,1,1.24669,,,,,,,,1.24669,1,0,16,16,4,1,stimuli/black_3.jpg,,a,,,,,,,,
,,,,,,,,,,,,,EREN77,2,001,male,2020-10-25_19h59.30.776,openIAT,2020.1.0rc3,Win32,60,l,1,1.180945,,,,,,,,1.180945,1,0,17,17,9,1,stimuli/white_5.jpg,,l,,,,,,,,
,,,,,,,,,,,,,EREN77,2,001,male,2020-10-25_19h59.30.776,openIAT,2020.1.0rc3,Win32,60,l,1,0.96238,,,,,,,,0.96238,1,0,18,18,3,1,stimuli/white_2.jpg,,l,,,,,,,,
,,,,,,,,,,,,,EREN77,2,001,male,2020-10-25_19h59.30.776,openIAT,2020.1.0rc3,Win32,60,l,1,0.789725,,,,,,,,0.789725,1,0,19,19,1,1,stimuli/white_1.jpg,,l,,,,,,,,
,,,,,,,,,,,,,EREN77,2,001,male,2020-10-25_19h59.30.776,openIAT,2020.1.0rc3,Win32,60,,,,,,,,,,,,,,,,,,,,,0,2,2,2,1,incong_test.xlsx,"A = 
Black or 
Positive","L = 
White or 
Negative"
,,,,,,,,,,,,,EREN77,2,001,male,2020-10-25_19h59.30.776,openIAT,2020.1.0rc3,Win32,60,l,1,1.035105,,,,,,,,1.035105,1,0,0,0,6,1,stimuli/black_4.jpg,NaN,l,,,,,,,,
,,,,,,,,,,,,,EREN77,2,001,male,2020-10-25_19h59.30.776,openIAT,2020.1.0rc3,Win32,60,a,1,0.486225,,,,,,,,0.486225,1,0,1,1,7,1,stimuli/white_4.jpg,NaN,a,,,,,,,,
,,,,,,,,,,,,,EREN77,2,001,male,2020-10-25_19h59.30.776,openIAT,2020.1.0rc3,Win32,60,a,1,0.9115,,,,,,,,0.9115,1,0,2,2,9,1,stimuli/white_5.jpg,NaN,a,,,,,,,,
,,,,,,,,,,,,,EREN77,2,001,male,2020-10-25_19h59.30.776,openIAT,2020.1.0rc3,Win32,60,l,1,0.43825,,,,,,,,0.43825,1,0,3,3,4,1,stimuli/black_3.jpg,NaN,l,,,,,,,,
,,,,,,,,,,,,,EREN77,2,001,male,2020-10-25_19h59.30.776,openIAT,2020.1.0rc3,Win32,60,a,0,0.685375,,,,,,,,0.685375,0,0,4,4,8,1,stimuli/black_5.jpg,NaN,l,,,,,,,,
,,,,,,,,,,,,,EREN77,2,001,male,2020-10-25_19h59.30.776,openIAT,2020.1.0rc3,Win32,60,l,1,0.75763,,,,,,,,0.75763,1,0,5,5,2,1,stimuli/black_2.jpg,NaN,l,,,,,,,,
,,,,,,,,,,,,,EREN77,2,001,male,2020-10-25_19h59.30.776,openIAT,2020.1.0rc3,Win32,60,a,1,0.753035,,,,,,,,0.753035,1,0,6,6,1,1,stimuli/white_1.jpg,NaN,a,,,,,,,,
,,,,,,,,,,,,,EREN77,2,001,male,2020-10-25_19h59.30.776,openIAT,2020.1.0rc3,Win32,60,l,0,0.87568,,,,,,,,0.87568,0,0,7,7,3,1,stimuli/white_2.jpg,NaN,a,,,,,,,,
,,,,,,,,,,,,,EREN77,2,001,male,2020-10-25_19h59.30.776,openIAT,2020.1.0rc3,Win32,60,a,0,0.39115,,,,,,,,0.39115,0,0,8,8,0,1,stimuli/black_1.jpg,NaN,l,,,,,,,,
,,,,,,,,,,,,,EREN77,2,001,male,2020-10-25_19h59.30.776,openIAT,2020.1.0rc3,Win32,60,a,1,2.468245,,,,,,,,2.468245,1,0,9,9,5,1,stimuli/white_3.jpg,NaN,a,,,,,,,,
,,,,,,,,,,,,,EREN77,2,001,male,2020-10-25_19h59.30.776,openIAT,2020.1.0rc3,Win32,60,,,,,,,,,,,,,,,,,,,,,0,3,3,3,1,cong_train.xlsx,"A = 
White","L = 
Black"
,,,,,,,,,,,,,EREN77,2,001,male,2020-10-25_19h59.30.776,openIAT,2020.1.0rc3,Win32,60,a,1,2.831425,,,,,,,,2.831425,1,0,0,0,18,1,stimuli/blank.png,Joy,a,,,,,,,,
,,,,,,,,,,,,,EREN77,2,001,male,2020-10-25_19h59.30.776,openIAT,2020.1.0rc3,Win32,60,a,1,0.70655,,,,,,,,0.70655,1,0,1,1,16,1,stimuli/blank.png,Love,a,,,,,,,,
,,,,,,,,,,,,,EREN77,2,001,male,2020-10-25_19h59.30.776,openIAT,2020.1.0rc3,Win32,60,l,1,0.71028,,,,,,,,0.71028,1,0,2,2,4,1,stimuli/black_3.jpg,NaN,l,,,,,,,,
,,,,,,,,,,,,,EREN77,2,001,male,2020-10-25_19h59.30.776,openIAT,2020.1.0rc3,Win32,60,l,1,0.558875,,,,,,,,0.558875,1,0,3,3,8,1,stimuli/black_5.jpg,NaN,l,,,,,,,,
,,,,,,,,,,,,,EREN77,2,001,male,2020-10-25_19h59.30.776,openIAT,2020.1.0rc3,Win32,60,l,1,0.774115,,,,,,,,0.774115,1,0,4,4,13,1,stimuli/blank.png,Hurt,l,,,,,,,,
,,,,,,,,,,,,,EREN77,2,001,male,2020-10-25_19h59.30.776,openIAT,2020.1.0rc3,Win32,60,a,1,0.78477,,,,,,,,0.78477,1,0,5,5,7,1,stimuli/white_4.jpg,NaN,a,,,,,,,,
,,,,,,,,,,,,,EREN77,2,001,male,2020-10-25_19h59.30.776,openIAT,2020.1.0rc3,Win32,60,l,1,2.10409,,,,,,,,2.10409,1,0,6,6,0,1,stimuli/black_1.jpg,NaN,l,,,,,,,,
,,,,,,,,,,,,,EREN77,2,001,male,2020-10-25_19h59.30.776,openIAT,2020.1.0rc3,Win32,60,l,1,0.925335,,,,,,,,0.925335,1,0,7,7,15,1,stimuli/blank.png,Agony,l,,,,,,,,
,,,,,,,,,,,,,EREN77,2,001,male,2020-10-25_19h59.30.776,openIAT,2020.1.0rc3,Win32,60,a,1,0.792485,,,,,,,,0.792485,1,0,8,8,12,1,stimuli/blank.png,Happy,a,,,,,,,,
,,,,,,,,,,,,,EREN77,2,001,male,2020-10-25_19h59.30.776,openIAT,2020.1.0rc3,Win32,60,l,1,0.701815,,,,,,,,0.701815,1,0,9,9,19,1,stimuli/blank.png,Nasty,l,,,,,,,,
,,,,,,,,,,,,,EREN77,2,001,male,2020-10-25_19h59.30.776,openIAT,2020.1.0rc3,Win32,60,l,1,0.786965,,,,,,,,0.786965,1,0,10,10,11,1,stimuli/blank.png,Bad,l,,,,,,,,
,,,,,,,,,,,,,EREN77,2,001,male,2020-10-25_19h59.30.776,openIAT,2020.1.0rc3,Win32,60,a,1,0.74099,,,,,,,,0.74099,1,0,11,11,14,1,stimuli/blank.png,Pleasure,a,,,,,,,,
,,,,,,,,,,,,,EREN77,2,001,male,2020-10-25_19h59.30.776,openIAT,2020.1.0rc3,Win32,60,a,0,1.00829,,,,,,,,1.00829,0,0,12,12,6,1,stimuli/black_4.jpg,NaN,l,,,,,,,,
,,,,,,,,,,,,,EREN77,2,001,male,2020-10-25_19h59.30.776,openIAT,2020.1.0rc3,Win32,60,l,0,1.491145,,,,,,,,1.491145,0,0,13,13,9,1,stimuli/white_5.jpg,NaN,a,,,,,,,,
,,,,,,,,,,,,,EREN77,2,001,male,2020-10-25_19h59.30.776,openIAT,2020.1.0rc3,Win32,60,l,1,1.02502,,,,,,,,1.02502,1,0,14,14,2,1,stimuli/black_2.jpg,NaN,l,,,,,,,,
,,,,,,,,,,,,,EREN77,2,001,male,2020-10-25_19h59.30.776,openIAT,2020.1.0rc3,Win32,60,l,1,0.88524,,,,,,,,0.88524,1,0,15,15,17,1,stimuli/blank.png,Evil,l,,,,,,,,
,,,,,,,,,,,,,EREN77,2,001,male,2020-10-25_19h59.30.776,openIAT,2020.1.0rc3,Win32,60,a,1,1.03545,,,,,,,,1.03545,1,0,16,16,3,1,stimuli/white_2.jpg,NaN,a,,,,,,,,
,,,,,,,,,,,,,EREN77,2,001,male,2020-10-25_19h59.30.776,openIAT,2020.1.0rc3,Win32,60,a,1,1.03464,,,,,,,,1.03464,1,0,17,17,1,1,stimuli/white_1.jpg,NaN,a,,,,,,,,
,,,,,,,,,,,,,EREN77,2,001,male,2020-10-25_19h59.30.776,openIAT,2020.1.0rc3,Win32,60,a,1,0.77115,,,,,,,,0.77115,1,0,18,18,10,1,stimuli/blank.png,Good,a,,,,,,,,
,,,,,,,,,,,,,EREN77,2,001,male,2020-10-25_19h59.30.776,openIAT,2020.1.0rc3,Win32,60,a,1,1.188675,,,,,,,,1.188675,1,0,19,19,5,1,stimuli/white_3.jpg,NaN,a,,,,,,,,
