instr_done_touch.x,instr_done_touch.y,instr_done_touch.leftButton,instr_done_touch.midButton,instr_done_touch.rightButton,instr_done_touch.clicked_name,instruct_pages.thisRepN,instruct_pages.thisTrialN,instruct_pages.thisN,instruct_pages.thisIndex,instruct_pages.ran,pageN,instruct_text,participant,order,session,gender,date,expName,psychopyVersion,OS,frameRate,key_resp.keys,key_resp.corr,key_resp.rt,touch_resp.x,touch_resp.y,touch_resp.leftButton,touch_resp.midButton,touch_resp.rightButton,touch_resp.time,touch_resp.clicked_name,rt,corr,trials.thisRepN,trials.thisTrialN,trials.thisN,trials.thisIndex,trials.ran,stimImage,stimWord,CorrAns,blocks.thisRepN,blocks.thisTrialN,blocks.thisN,blocks.thisIndex,blocks.ran,conds_file,label_left,label_right
0.033532986,-0.433151042,1,0,0,instr_done_button,0,0,0,0,1,1,"You will be presented with words or images to classify into categories using either the 'A' or 'L' key. 
 
Try to go as fast as possible while making as few mistakes as possible. 
",GabGamab,2,001,female,2020-11-02_08h31.46.972,openIAT,2020.1.0rc3,MacIntel,60,,,,,,,,,,,,,,,,,,,,,,,,,,,,
0.120633681,-0.369557292,1,0,0,instr_done_button,0,1,1,1,1,2,"Keep in mind: 
 
1) Labels at the top of the screen indicate which catogory goes with which key. 
 
2) Each word or image has a correct catogory classification 
 
3) Keep your index fingers on the A and L keys to enable a rapid response. 
 
4) The test gives no results if you go slow- please try to go as fast as possible 
",GabGamab,2,001,female,2020-11-02_08h31.46.972,openIAT,2020.1.0rc3,MacIntel,60,,,,,,,,,,,,,,,,,,,,,,,,,,,,
,,,,,,,,,,,,,GabGamab,2,001,female,2020-11-02_08h31.46.972,openIAT,2020.1.0rc3,MacIntel,60,l,1,1.92541,,,,,,,,1.92541,1,0,0,0,1,1,stimuli/blank.png,Bad,l,,,,,,,,
,,,,,,,,,,,,,GabGamab,2,001,female,2020-11-02_08h31.46.972,openIAT,2020.1.0rc3,MacIntel,60,l,1,1.26682,,,,,,,,1.26682,1,0,1,1,9,1,stimuli/blank.png,Nasty,l,,,,,,,,
,,,,,,,,,,,,,GabGamab,2,001,female,2020-11-02_08h31.46.972,openIAT,2020.1.0rc3,MacIntel,60,a,1,0.89996,,,,,,,,0.89996,1,0,2,2,4,1,stimuli/blank.png,Pleasure,a,,,,,,,,
,,,,,,,,,,,,,GabGamab,2,001,female,2020-11-02_08h31.46.972,openIAT,2020.1.0rc3,MacIntel,60,a,1,0.82812,,,,,,,,0.82812,1,0,3,3,6,1,stimuli/blank.png,Love,a,,,,,,,,
,,,,,,,,,,,,,GabGamab,2,001,female,2020-11-02_08h31.46.972,openIAT,2020.1.0rc3,MacIntel,60,l,1,0.710185,,,,,,,,0.710185,1,0,4,4,7,1,stimuli/blank.png,Evil,l,,,,,,,,
,,,,,,,,,,,,,GabGamab,2,001,female,2020-11-02_08h31.46.972,openIAT,2020.1.0rc3,MacIntel,60,l,1,0.797225,,,,,,,,0.797225,1,0,5,5,3,1,stimuli/blank.png,Hurt,l,,,,,,,,
,,,,,,,,,,,,,GabGamab,2,001,female,2020-11-02_08h31.46.972,openIAT,2020.1.0rc3,MacIntel,60,a,1,0.652705,,,,,,,,0.652705,1,0,6,6,8,1,stimuli/blank.png,Joy,a,,,,,,,,
,,,,,,,,,,,,,GabGamab,2,001,female,2020-11-02_08h31.46.972,openIAT,2020.1.0rc3,MacIntel,60,a,1,0.83373,,,,,,,,0.83373,1,0,7,7,0,1,stimuli/blank.png,Good,a,,,,,,,,
,,,,,,,,,,,,,GabGamab,2,001,female,2020-11-02_08h31.46.972,openIAT,2020.1.0rc3,MacIntel,60,a,1,0.54829,,,,,,,,0.54829,1,0,8,8,2,1,stimuli/blank.png,Happy,a,,,,,,,,
,,,,,,,,,,,,,GabGamab,2,001,female,2020-11-02_08h31.46.972,openIAT,2020.1.0rc3,MacIntel,60,l,1,0.473795,,,,,,,,0.473795,1,0,9,9,5,1,stimuli/blank.png,Agony,l,,,,,,,,
,,,,,,,,,,,,,GabGamab,2,001,female,2020-11-02_08h31.46.972,openIAT,2020.1.0rc3,MacIntel,60,,,,,,,,,,,,,,,,,,,,,0,0,0,0,1,pos_neg_train.xlsx,"A = 
Positive","L = 
Negative"
,,,,,,,,,,,,,GabGamab,2,001,female,2020-11-02_08h31.46.972,openIAT,2020.1.0rc3,MacIntel,60,l,1,2.27505,,,,,,,,2.27505,1,0,0,0,7,1,stimuli/white_4.jpg,,l,,,,,,,,
,,,,,,,,,,,,,GabGamab,2,001,female,2020-11-02_08h31.46.972,openIAT,2020.1.0rc3,MacIntel,60,l,1,4.603215,,,,,,,,4.603215,1,0,1,1,3,1,stimuli/white_2.jpg,,l,,,,,,,,
,,,,,,,,,,,,,GabGamab,2,001,female,2020-11-02_08h31.46.972,openIAT,2020.1.0rc3,MacIntel,60,l,1,1.344595,,,,,,,,1.344595,1,0,2,2,9,1,stimuli/white_5.jpg,,l,,,,,,,,
,,,,,,,,,,,,,GabGamab,2,001,female,2020-11-02_08h31.46.972,openIAT,2020.1.0rc3,MacIntel,60,a,1,0.703755,,,,,,,,0.703755,1,0,3,3,2,1,stimuli/black_2.jpg,,a,,,,,,,,
,,,,,,,,,,,,,GabGamab,2,001,female,2020-11-02_08h31.46.972,openIAT,2020.1.0rc3,MacIntel,60,a,1,0.58039,,,,,,,,0.58039,1,0,4,4,6,1,stimuli/black_4.jpg,,a,,,,,,,,
,,,,,,,,,,,,,GabGamab,2,001,female,2020-11-02_08h31.46.972,openIAT,2020.1.0rc3,MacIntel,60,l,1,0.889135,,,,,,,,0.889135,1,0,5,5,1,1,stimuli/white_1.jpg,,l,,,,,,,,
,,,,,,,,,,,,,GabGamab,2,001,female,2020-11-02_08h31.46.972,openIAT,2020.1.0rc3,MacIntel,60,a,1,0.798765,,,,,,,,0.798765,1,0,6,6,4,1,stimuli/black_3.jpg,,a,,,,,,,,
,,,,,,,,,,,,,GabGamab,2,001,female,2020-11-02_08h31.46.972,openIAT,2020.1.0rc3,MacIntel,60,a,1,0.472855,,,,,,,,0.472855,1,0,7,7,8,1,stimuli/black_5.jpg,,a,,,,,,,,
,,,,,,,,,,,,,GabGamab,2,001,female,2020-11-02_08h31.46.972,openIAT,2020.1.0rc3,MacIntel,60,a,1,0.714945,,,,,,,,0.714945,1,0,8,8,0,1,stimuli/black_1.jpg,,a,,,,,,,,
,,,,,,,,,,,,,GabGamab,2,001,female,2020-11-02_08h31.46.972,openIAT,2020.1.0rc3,MacIntel,60,l,1,0.726145,,,,,,,,0.726145,1,0,9,9,5,1,stimuli/white_3.jpg,,l,,,,,,,,
,,,,,,,,,,,,,GabGamab,2,001,female,2020-11-02_08h31.46.972,openIAT,2020.1.0rc3,MacIntel,60,,,,,,,,,,,,,,,,,,,,,0,1,1,1,1,incong_train.xlsx,"A = 
Black","L = 
White"
,,,,,,,,,,,,,GabGamab,2,001,female,2020-11-02_08h31.46.972,openIAT,2020.1.0rc3,MacIntel,60,a,1,2.178375,,,,,,,,2.178375,1,0,0,0,14,1,stimuli/blank.png,Pleasure,a,,,,,,,,
,,,,,,,,,,,,,GabGamab,2,001,female,2020-11-02_08h31.46.972,openIAT,2020.1.0rc3,MacIntel,60,l,1,2.323275,,,,,,,,2.323275,1,0,1,1,3,1,stimuli/white_2.jpg,,l,,,,,,,,
,,,,,,,,,,,,,GabGamab,2,001,female,2020-11-02_08h31.46.972,openIAT,2020.1.0rc3,MacIntel,60,a,1,0.63322,,,,,,,,0.63322,1,0,2,2,8,1,stimuli/black_5.jpg,,a,,,,,,,,
,,,,,,,,,,,,,GabGamab,2,001,female,2020-11-02_08h31.46.972,openIAT,2020.1.0rc3,MacIntel,60,l,1,0.914025,,,,,,,,0.914025,1,0,3,3,19,1,stimuli/blank.png,Nasty,l,,,,,,,,
,,,,,,,,,,,,,GabGamab,2,001,female,2020-11-02_08h31.46.972,openIAT,2020.1.0rc3,MacIntel,60,a,1,1.59735,,,,,,,,1.59735,1,0,4,4,10,1,stimuli/blank.png,Good,a,,,,,,,,
,,,,,,,,,,,,,GabGamab,2,001,female,2020-11-02_08h31.46.972,openIAT,2020.1.0rc3,MacIntel,60,l,1,0.79643,,,,,,,,0.79643,1,0,5,5,5,1,stimuli/white_3.jpg,,l,,,,,,,,
,,,,,,,,,,,,,GabGamab,2,001,female,2020-11-02_08h31.46.972,openIAT,2020.1.0rc3,MacIntel,60,a,0,1.76377,,,,,,,,1.76377,0,0,6,6,11,1,stimuli/blank.png,Bad,l,,,,,,,,
,,,,,,,,,,,,,GabGamab,2,001,female,2020-11-02_08h31.46.972,openIAT,2020.1.0rc3,MacIntel,60,a,1,1.274825,,,,,,,,1.274825,1,0,7,7,12,1,stimuli/blank.png,Happy,a,,,,,,,,
,,,,,,,,,,,,,GabGamab,2,001,female,2020-11-02_08h31.46.972,openIAT,2020.1.0rc3,MacIntel,60,a,1,1.06572,,,,,,,,1.06572,1,0,8,8,4,1,stimuli/black_3.jpg,,a,,,,,,,,
,,,,,,,,,,,,,GabGamab,2,001,female,2020-11-02_08h31.46.972,openIAT,2020.1.0rc3,MacIntel,60,l,1,0.843835,,,,,,,,0.843835,1,0,9,9,13,1,stimuli/blank.png,Hurt,l,,,,,,,,
,,,,,,,,,,,,,GabGamab,2,001,female,2020-11-02_08h31.46.972,openIAT,2020.1.0rc3,MacIntel,60,l,1,0.730465,,,,,,,,0.730465,1,0,10,10,9,1,stimuli/white_5.jpg,,l,,,,,,,,
,,,,,,,,,,,,,GabGamab,2,001,female,2020-11-02_08h31.46.972,openIAT,2020.1.0rc3,MacIntel,60,l,1,0.81251,,,,,,,,0.81251,1,0,11,11,1,1,stimuli/white_1.jpg,,l,,,,,,,,
,,,,,,,,,,,,,GabGamab,2,001,female,2020-11-02_08h31.46.972,openIAT,2020.1.0rc3,MacIntel,60,l,1,1.90313,,,,,,,,1.90313,1,0,12,12,15,1,stimuli/blank.png,Agony,l,,,,,,,,
,,,,,,,,,,,,,GabGamab,2,001,female,2020-11-02_08h31.46.972,openIAT,2020.1.0rc3,MacIntel,60,a,1,1.780265,,,,,,,,1.780265,1,0,13,13,18,1,stimuli/blank.png,Joy,a,,,,,,,,
,,,,,,,,,,,,,GabGamab,2,001,female,2020-11-02_08h31.46.972,openIAT,2020.1.0rc3,MacIntel,60,a,1,1.003765,,,,,,,,1.003765,1,0,14,14,2,1,stimuli/black_2.jpg,,a,,,,,,,,
,,,,,,,,,,,,,GabGamab,2,001,female,2020-11-02_08h31.46.972,openIAT,2020.1.0rc3,MacIntel,60,a,1,0.72953,,,,,,,,0.72953,1,0,15,15,0,1,stimuli/black_1.jpg,,a,,,,,,,,
,,,,,,,,,,,,,GabGamab,2,001,female,2020-11-02_08h31.46.972,openIAT,2020.1.0rc3,MacIntel,60,l,1,1.20101,,,,,,,,1.20101,1,0,16,16,17,1,stimuli/blank.png,Evil,l,,,,,,,,
,,,,,,,,,,,,,GabGamab,2,001,female,2020-11-02_08h31.46.972,openIAT,2020.1.0rc3,MacIntel,60,a,1,1.078695,,,,,,,,1.078695,1,0,17,17,6,1,stimuli/black_4.jpg,,a,,,,,,,,
,,,,,,,,,,,,,GabGamab,2,001,female,2020-11-02_08h31.46.972,openIAT,2020.1.0rc3,MacIntel,60,l,1,1.015055,,,,,,,,1.015055,1,0,18,18,7,1,stimuli/white_4.jpg,,l,,,,,,,,
,,,,,,,,,,,,,GabGamab,2,001,female,2020-11-02_08h31.46.972,openIAT,2020.1.0rc3,MacIntel,60,a,1,1.549005,,,,,,,,1.549005,1,0,19,19,16,1,stimuli/blank.png,Love,a,,,,,,,,
,,,,,,,,,,,,,GabGamab,2,001,female,2020-11-02_08h31.46.972,openIAT,2020.1.0rc3,MacIntel,60,,,,,,,,,,,,,,,,,,,,,0,2,2,2,1,incong_test.xlsx,"A = 
Black or 
Positive","L = 
White or 
Negative"
,,,,,,,,,,,,,GabGamab,2,001,female,2020-11-02_08h31.46.972,openIAT,2020.1.0rc3,MacIntel,60,l,1,2.400305,,,,,,,,2.400305,1,0,0,0,2,1,stimuli/black_2.jpg,NaN,l,,,,,,,,
,,,,,,,,,,,,,GabGamab,2,001,female,2020-11-02_08h31.46.972,openIAT,2020.1.0rc3,MacIntel,60,a,1,1.132245,,,,,,,,1.132245,1,0,1,1,1,1,stimuli/white_1.jpg,NaN,a,,,,,,,,
,,,,,,,,,,,,,GabGamab,2,001,female,2020-11-02_08h31.46.972,openIAT,2020.1.0rc3,MacIntel,60,a,1,0.813175,,,,,,,,0.813175,1,0,2,2,9,1,stimuli/white_5.jpg,NaN,a,,,,,,,,
,,,,,,,,,,,,,GabGamab,2,001,female,2020-11-02_08h31.46.972,openIAT,2020.1.0rc3,MacIntel,60,a,1,1.18403,,,,,,,,1.18403,1,0,3,3,3,1,stimuli/white_2.jpg,NaN,a,,,,,,,,
,,,,,,,,,,,,,GabGamab,2,001,female,2020-11-02_08h31.46.972,openIAT,2020.1.0rc3,MacIntel,60,l,1,0.40944,,,,,,,,0.40944,1,0,4,4,6,1,stimuli/black_4.jpg,NaN,l,,,,,,,,
,,,,,,,,,,,,,GabGamab,2,001,female,2020-11-02_08h31.46.972,openIAT,2020.1.0rc3,MacIntel,60,l,1,0.51567,,,,,,,,0.51567,1,0,5,5,0,1,stimuli/black_1.jpg,NaN,l,,,,,,,,
,,,,,,,,,,,,,GabGamab,2,001,female,2020-11-02_08h31.46.972,openIAT,2020.1.0rc3,MacIntel,60,a,1,0.5997,,,,,,,,0.5997,1,0,6,6,5,1,stimuli/white_3.jpg,NaN,a,,,,,,,,
,,,,,,,,,,,,,GabGamab,2,001,female,2020-11-02_08h31.46.972,openIAT,2020.1.0rc3,MacIntel,60,l,1,0.7921,,,,,,,,0.7921,1,0,7,7,4,1,stimuli/black_3.jpg,NaN,l,,,,,,,,
,,,,,,,,,,,,,GabGamab,2,001,female,2020-11-02_08h31.46.972,openIAT,2020.1.0rc3,MacIntel,60,l,1,0.36868,,,,,,,,0.36868,1,0,8,8,8,1,stimuli/black_5.jpg,NaN,l,,,,,,,,
,,,,,,,,,,,,,GabGamab,2,001,female,2020-11-02_08h31.46.972,openIAT,2020.1.0rc3,MacIntel,60,a,1,0.550255,,,,,,,,0.550255,1,0,9,9,7,1,stimuli/white_4.jpg,NaN,a,,,,,,,,
,,,,,,,,,,,,,GabGamab,2,001,female,2020-11-02_08h31.46.972,openIAT,2020.1.0rc3,MacIntel,60,,,,,,,,,,,,,,,,,,,,,0,3,3,3,1,cong_train.xlsx,"A = 
White","L = 
Black"
,,,,,,,,,,,,,GabGamab,2,001,female,2020-11-02_08h31.46.972,openIAT,2020.1.0rc3,MacIntel,60,a,1,1.51589,,,,,,,,1.51589,1,0,0,0,5,1,stimuli/white_3.jpg,NaN,a,,,,,,,,
,,,,,,,,,,,,,GabGamab,2,001,female,2020-11-02_08h31.46.972,openIAT,2020.1.0rc3,MacIntel,60,a,1,0.609645,,,,,,,,0.609645,1,0,1,1,3,1,stimuli/white_2.jpg,NaN,a,,,,,,,,
,,,,,,,,,,,,,GabGamab,2,001,female,2020-11-02_08h31.46.972,openIAT,2020.1.0rc3,MacIntel,60,a,1,0.714065,,,,,,,,0.714065,1,0,2,2,1,1,stimuli/white_1.jpg,NaN,a,,,,,,,,
,,,,,,,,,,,,,GabGamab,2,001,female,2020-11-02_08h31.46.972,openIAT,2020.1.0rc3,MacIntel,60,l,1,0.522675,,,,,,,,0.522675,1,0,3,3,2,1,stimuli/black_2.jpg,NaN,l,,,,,,,,
,,,,,,,,,,,,,GabGamab,2,001,female,2020-11-02_08h31.46.972,openIAT,2020.1.0rc3,MacIntel,60,l,1,0.508305,,,,,,,,0.508305,1,0,4,4,4,1,stimuli/black_3.jpg,NaN,l,,,,,,,,
,,,,,,,,,,,,,GabGamab,2,001,female,2020-11-02_08h31.46.972,openIAT,2020.1.0rc3,MacIntel,60,a,1,0.517995,,,,,,,,0.517995,1,0,5,5,7,1,stimuli/white_4.jpg,NaN,a,,,,,,,,
,,,,,,,,,,,,,GabGamab,2,001,female,2020-11-02_08h31.46.972,openIAT,2020.1.0rc3,MacIntel,60,l,1,0.532795,,,,,,,,0.532795,1,0,6,6,0,1,stimuli/black_1.jpg,NaN,l,,,,,,,,
,,,,,,,,,,,,,GabGamab,2,001,female,2020-11-02_08h31.46.972,openIAT,2020.1.0rc3,MacIntel,60,l,1,2.084485,,,,,,,,2.084485,1,0,7,7,15,1,stimuli/blank.png,Agony,l,,,,,,,,
,,,,,,,,,,,,,GabGamab,2,001,female,2020-11-02_08h31.46.972,openIAT,2020.1.0rc3,MacIntel,60,a,1,0.7663,,,,,,,,0.7663,1,0,8,8,12,1,stimuli/blank.png,Happy,a,,,,,,,,
,,,,,,,,,,,,,GabGamab,2,001,female,2020-11-02_08h31.46.972,openIAT,2020.1.0rc3,MacIntel,60,a,1,1.20026,,,,,,,,1.20026,1,0,9,9,16,1,stimuli/blank.png,Love,a,,,,,,,,
,,,,,,,,,,,,,GabGamab,2,001,female,2020-11-02_08h31.46.972,openIAT,2020.1.0rc3,MacIntel,60,a,1,1.179855,,,,,,,,1.179855,1,0,10,10,18,1,stimuli/blank.png,Joy,a,,,,,,,,
,,,,,,,,,,,,,GabGamab,2,001,female,2020-11-02_08h31.46.972,openIAT,2020.1.0rc3,MacIntel,60,a,1,0.562225,,,,,,,,0.562225,1,0,11,11,14,1,stimuli/blank.png,Pleasure,a,,,,,,,,
,,,,,,,,,,,,,GabGamab,2,001,female,2020-11-02_08h31.46.972,openIAT,2020.1.0rc3,MacIntel,60,l,1,0.97978,,,,,,,,0.97978,1,0,12,12,8,1,stimuli/black_5.jpg,NaN,l,,,,,,,,
,,,,,,,,,,,,,GabGamab,2,001,female,2020-11-02_08h31.46.972,openIAT,2020.1.0rc3,MacIntel,60,l,1,1.11388,,,,,,,,1.11388,1,0,13,13,13,1,stimuli/blank.png,Hurt,l,,,,,,,,
,,,,,,,,,,,,,GabGamab,2,001,female,2020-11-02_08h31.46.972,openIAT,2020.1.0rc3,MacIntel,60,l,1,1.94727,,,,,,,,1.94727,1,0,14,14,19,1,stimuli/blank.png,Nasty,l,,,,,,,,
,,,,,,,,,,,,,GabGamab,2,001,female,2020-11-02_08h31.46.972,openIAT,2020.1.0rc3,MacIntel,60,l,1,0.467815,,,,,,,,0.467815,1,0,15,15,11,1,stimuli/blank.png,Bad,l,,,,,,,,
,,,,,,,,,,,,,GabGamab,2,001,female,2020-11-02_08h31.46.972,openIAT,2020.1.0rc3,MacIntel,60,l,1,0.89556,,,,,,,,0.89556,1,0,16,16,17,1,stimuli/blank.png,Evil,l,,,,,,,,
,,,,,,,,,,,,,GabGamab,2,001,female,2020-11-02_08h31.46.972,openIAT,2020.1.0rc3,MacIntel,60,l,1,0.524015,,,,,,,,0.524015,1,0,17,17,6,1,stimuli/black_4.jpg,NaN,l,,,,,,,,
,,,,,,,,,,,,,GabGamab,2,001,female,2020-11-02_08h31.46.972,openIAT,2020.1.0rc3,MacIntel,60,a,1,0.636015,,,,,,,,0.636015,1,0,18,18,9,1,stimuli/white_5.jpg,NaN,a,,,,,,,,
,,,,,,,,,,,,,GabGamab,2,001,female,2020-11-02_08h31.46.972,openIAT,2020.1.0rc3,MacIntel,60,a,1,0.5325,,,,,,,,0.5325,1,0,19,19,10,1,stimuli/blank.png,Good,a,,,,,,,,
