instr_done_touch.x,instr_done_touch.y,instr_done_touch.leftButton,instr_done_touch.midButton,instr_done_touch.rightButton,instr_done_touch.clicked_name,instruct_pages.thisRepN,instruct_pages.thisTrialN,instruct_pages.thisN,instruct_pages.thisIndex,instruct_pages.ran,pageN,instruct_text,participant,order,session,gender,date,expName,psychopyVersion,OS,frameRate,key_resp.keys,key_resp.corr,touch_resp.x,touch_resp.y,touch_resp.leftButton,touch_resp.midButton,touch_resp.rightButton,touch_resp.time,touch_resp.clicked_name,rt,corr,trials.thisRepN,trials.thisTrialN,trials.thisN,trials.thisIndex,trials.ran,stimImage,stimWord,CorrAns,blocks.thisRepN,blocks.thisTrialN,blocks.thisN,blocks.thisIndex,blocks.ran,conds_file,label_left,label_right
-0.024074074,-0.378703704,1,0,0,instr_done_button,0,0,0,0,1,1,"You will be presented with words or images to classify into categories using either the 'A' or 'L' key. 
 
Try to go as fast as possible while making as few mistakes as possible. 
",h,2,001,male,2021-02-23_12h49.47.899,openIAT,2020.1.0rc3,Win32,60,,,,,,,,,,,,,,,,,,,,,,,,,,,
0.00462963,-0.387962963,1,0,0,instr_done_button,0,1,1,1,1,2,"Keep in mind: 
 
1) Labels at the top of the screen indicate which catogory goes with which key. 
 
2) Each word or image has a correct catogory classification 
 
3) Keep your index fingers on the A and L keys to enable a rapid response. 
 
4) The test gives no results if you go slow- please try to go as fast as possible 
",h,2,001,male,2021-02-23_12h49.47.899,openIAT,2020.1.0rc3,Win32,60,,,,,,,,,,,,,,,,,,,,,,,,,,,
,,,,,,,,,,,,,h,2,001,male,2021-02-23_12h49.47.899,openIAT,2020.1.0rc3,Win32,60,,0,0.318518519,-0.321296296,1,0,0,1.543895,button_right,1.543895,1,0,0,0,3,1,stimuli/blank.png,Hurt,l,,,,,,,,
,,,,,,,,,,,,,h,2,001,male,2021-02-23_12h49.47.899,openIAT,2020.1.0rc3,Win32,60,,0,0.318518519,-0.321296296,1,0,0,1.04945,button_right,1.04945,1,0,1,1,1,1,stimuli/blank.png,Bad,l,,,,,,,,
,,,,,,,,,,,,,h,2,001,male,2021-02-23_12h49.47.899,openIAT,2020.1.0rc3,Win32,60,,0,0.318518519,-0.321296296,1,0,0,1.27947,button_right,1.27947,1,0,2,2,5,1,stimuli/blank.png,Agony,l,,,,,,,,
,,,,,,,,,,,,,h,2,001,male,2021-02-23_12h49.47.899,openIAT,2020.1.0rc3,Win32,60,,0,0.318518519,-0.321296296,1,0,0,0.665565,button_right,0.665565,1,0,3,3,7,1,stimuli/blank.png,Evil,l,,,,,,,,
,,,,,,,,,,,,,h,2,001,male,2021-02-23_12h49.47.899,openIAT,2020.1.0rc3,Win32,60,,0,-0.24537037,-0.30462963,1,0,0,0.91546,button_left,0.91546,1,0,4,4,2,1,stimuli/blank.png,Happy,a,,,,,,,,
,,,,,,,,,,,,,h,2,001,male,2021-02-23_12h49.47.899,openIAT,2020.1.0rc3,Win32,60,,0,-0.385185185,-0.312962963,1,0,0,3.60219,button_left,3.60219,1,0,5,5,8,1,stimuli/blank.png,Joy,a,,,,,,,,
,,,,,,,,,,,,,h,2,001,male,2021-02-23_12h49.47.899,openIAT,2020.1.0rc3,Win32,60,,0,-0.374074074,-0.312037037,1,0,0,0.882055,button_left,0.882055,1,0,6,6,4,1,stimuli/blank.png,Pleasure,a,,,,,,,,
,,,,,,,,,,,,,h,2,001,male,2021-02-23_12h49.47.899,openIAT,2020.1.0rc3,Win32,60,,0,-0.374074074,-0.312037037,1,0,0,0.682235,button_left,0.682235,1,0,7,7,6,1,stimuli/blank.png,Love,a,,,,,,,,
,,,,,,,,,,,,,h,2,001,male,2021-02-23_12h49.47.899,openIAT,2020.1.0rc3,Win32,60,,0,0.221296296,-0.322222222,1,0,0,0.929515,button_right,0.929515,1,0,8,8,9,1,stimuli/blank.png,Nasty,l,,,,,,,,
,,,,,,,,,,,,,h,2,001,male,2021-02-23_12h49.47.899,openIAT,2020.1.0rc3,Win32,60,,0,-0.232407407,-0.321296296,1,0,0,2.382745,button_left,2.382745,1,0,9,9,0,1,stimuli/blank.png,Good,a,,,,,,,,
,,,,,,,,,,,,,h,2,001,male,2021-02-23_12h49.47.899,openIAT,2020.1.0rc3,Win32,60,,,,,,,,,,,,,,,,,,,,0,0,0,0,1,pos_neg_train.xlsx,"A = 
Positive","L = 
Negative"
,,,,,,,,,,,,,h,2,001,male,2021-02-23_12h49.47.899,openIAT,2020.1.0rc3,Win32,60,,0,0.274074074,-0.330555556,1,0,0,2.099455,button_right,2.099455,1,0,0,0,5,1,stimuli/white_3.jpg,,l,,,,,,,,
,,,,,,,,,,,,,h,2,001,male,2021-02-23_12h49.47.899,openIAT,2020.1.0rc3,Win32,60,,0,-0.260185185,-0.323148148,1,0,0,1.84957,button_left,1.84957,1,0,1,1,0,1,stimuli/black_1.jpg,,a,,,,,,,,
,,,,,,,,,,,,,h,2,001,male,2021-02-23_12h49.47.899,openIAT,2020.1.0rc3,Win32,60,,0,0.334259259,-0.325925926,1,0,0,1.88258,button_right,1.88258,1,0,2,2,7,1,stimuli/white_4.jpg,,l,,,,,,,,
,,,,,,,,,,,,,h,2,001,male,2021-02-23_12h49.47.899,openIAT,2020.1.0rc3,Win32,60,,0,-0.24537037,-0.335185185,1,0,0,2.24834,button_left,2.24834,1,0,3,3,4,1,stimuli/black_3.jpg,,a,,,,,,,,
,,,,,,,,,,,,,h,2,001,male,2021-02-23_12h49.47.899,openIAT,2020.1.0rc3,Win32,60,,0,-0.242592593,-0.334259259,1,0,0,1.515755,button_left,1.515755,1,0,4,4,8,1,stimuli/black_5.jpg,,a,,,,,,,,
,,,,,,,,,,,,,h,2,001,male,2021-02-23_12h49.47.899,openIAT,2020.1.0rc3,Win32,60,,0,-0.242592593,-0.334259259,1,0,0,1.432975,button_left,1.432975,1,0,5,5,2,1,stimuli/black_2.jpg,,a,,,,,,,,
,,,,,,,,,,,,,h,2,001,male,2021-02-23_12h49.47.899,openIAT,2020.1.0rc3,Win32,60,,0,0.280555556,-0.29537037,1,0,0,2.31633,button_right,2.31633,1,0,6,6,9,1,stimuli/white_5.jpg,,l,,,,,,,,
,,,,,,,,,,,,,h,2,001,male,2021-02-23_12h49.47.899,openIAT,2020.1.0rc3,Win32,60,,0,0.280555556,-0.29537037,1,0,0,1.166265,button_right,1.166265,1,0,7,7,3,1,stimuli/white_2.jpg,,l,,,,,,,,
,,,,,,,,,,,,,h,2,001,male,2021-02-23_12h49.47.899,openIAT,2020.1.0rc3,Win32,60,,0,0.280555556,-0.29537037,1,0,0,1.149005,button_right,1.149005,1,0,8,8,1,1,stimuli/white_1.jpg,,l,,,,,,,,
,,,,,,,,,,,,,h,2,001,male,2021-02-23_12h49.47.899,openIAT,2020.1.0rc3,Win32,60,,0,-0.29537037,-0.313888889,1,0,0,1.336225,button_left,1.336225,1,0,9,9,6,1,stimuli/black_4.jpg,,a,,,,,,,,
,,,,,,,,,,,,,h,2,001,male,2021-02-23_12h49.47.899,openIAT,2020.1.0rc3,Win32,60,,,,,,,,,,,,,,,,,,,,0,1,1,1,1,incong_train.xlsx,"A = 
Black","L = 
White"
,,,,,,,,,,,,,h,2,001,male,2021-02-23_12h49.47.899,openIAT,2020.1.0rc3,Win32,60,,0,-0.258333333,-0.306481481,1,0,0,4.049175,button_left,4.049175,1,0,0,0,6,1,stimuli/black_4.jpg,,a,,,,,,,,
,,,,,,,,,,,,,h,2,001,male,2021-02-23_12h49.47.899,openIAT,2020.1.0rc3,Win32,60,,0,-0.009287926,-0.307017544,1,0,0,3.416225,button_left,3.416225,1,0,1,1,2,1,stimuli/black_2.jpg,,a,,,,,,,,
,,,,,,,,,,,,,h,2,001,male,2021-02-23_12h49.47.899,openIAT,2020.1.0rc3,Win32,60,,0,-0.235294118,-0.311145511,1,0,0,0.932405,button_left,0.932405,1,0,2,2,0,1,stimuli/black_1.jpg,,a,,,,,,,,
