instr_done_touch.x,instr_done_touch.y,instr_done_touch.leftButton,instr_done_touch.midButton,instr_done_touch.rightButton,instruct_pages.thisRepN,instruct_pages.thisTrialN,instruct_pages.thisN,instruct_pages.thisIndex,instruct_pages.ran,pageN,instruct_text,participant,order,session,gender,date,expName,psychopyVersion,OS,frameRate,key_resp.keys,key_resp.corr,key_resp.rt,touch_resp.x,touch_resp.y,touch_resp.leftButton,touch_resp.midButton,touch_resp.rightButton,touch_resp.time,touch_resp.clicked_name,rt,corr,trials.thisRepN,trials.thisTrialN,trials.thisN,trials.thisIndex,trials.ran,stimImage,stimWord,CorrAns,blocks.thisRepN,blocks.thisTrialN,blocks.thisN,blocks.thisIndex,blocks.ran,conds_file,label_left,label_right
0.790740741,-0.190740741,0,0,0,0,0,0,0,1,1,"You will be presented with words or images to classify into categories using either the 'A' or 'L' key. 
 
Try to go as fast as possible while making as few mistakes as possible. 
",hb,1,001,male,2020-08-28_19h08.49.040,openIAT,2020.1.0rc3,Win32,60,,,,,,,,,,,,,,,,,,,,,,,,,,,,
0.790740741,-0.190740741,0,0,0,0,1,1,1,1,2,"Keep in mind: 
 
1) Labels at the top of the screen indicate which catogory goes with which key. 
 
2) Each word or image has a correct catogory classification 
 
3) Keep your index fingers on the A and L keys to enable a rapid response. 
 
4) The test gives no results if you go slow- please try to go as fast as possible 
",hb,1,001,male,2020-08-28_19h08.49.040,openIAT,2020.1.0rc3,Win32,60,,,,,,,,,,,,,,,,,,,,,,,,,,,,
,,,,,,,,,,,,hb,1,001,male,2020-08-28_19h08.49.040,openIAT,2020.1.0rc3,Win32,60,l,1,1.796515,,,,,,,,1.796515,1,0,0,0,5,1,stimuli/blank.png,Agony,l,,,,,,,,
,,,,,,,,,,,,hb,1,001,male,2020-08-28_19h08.49.040,openIAT,2020.1.0rc3,Win32,60,a,1,0.651415,,,,,,,,0.651415,1,0,1,1,6,1,stimuli/blank.png,Love,a,,,,,,,,
,,,,,,,,,,,,hb,1,001,male,2020-08-28_19h08.49.040,openIAT,2020.1.0rc3,Win32,60,l,1,0.61923,,,,,,,,0.61923,1,0,2,2,9,1,stimuli/blank.png,Nasty,l,,,,,,,,
,,,,,,,,,,,,hb,1,001,male,2020-08-28_19h08.49.040,openIAT,2020.1.0rc3,Win32,60,a,1,0.677055,,,,,,,,0.677055,1,0,3,3,4,1,stimuli/blank.png,Pleasure,a,,,,,,,,
,,,,,,,,,,,,hb,1,001,male,2020-08-28_19h08.49.040,openIAT,2020.1.0rc3,Win32,60,l,1,0.885385,,,,,,,,0.885385,1,0,4,4,1,1,stimuli/blank.png,Bad,l,,,,,,,,
,,,,,,,,,,,,hb,1,001,male,2020-08-28_19h08.49.040,openIAT,2020.1.0rc3,Win32,60,l,1,0.61536,,,,,,,,0.61536,1,0,5,5,3,1,stimuli/blank.png,Hurt,l,,,,,,,,
,,,,,,,,,,,,hb,1,001,male,2020-08-28_19h08.49.040,openIAT,2020.1.0rc3,Win32,60,l,1,0.49059,,,,,,,,0.49059,1,0,6,6,7,1,stimuli/blank.png,Evil,l,,,,,,,,
,,,,,,,,,,,,hb,1,001,male,2020-08-28_19h08.49.040,openIAT,2020.1.0rc3,Win32,60,a,1,0.524745,,,,,,,,0.524745,1,0,7,7,8,1,stimuli/blank.png,Joy,a,,,,,,,,
,,,,,,,,,,,,hb,1,001,male,2020-08-28_19h08.49.040,openIAT,2020.1.0rc3,Win32,60,a,1,0.397885,,,,,,,,0.397885,1,0,8,8,0,1,stimuli/blank.png,Good,a,,,,,,,,
,,,,,,,,,,,,hb,1,001,male,2020-08-28_19h08.49.040,openIAT,2020.1.0rc3,Win32,60,a,1,0.38956,,,,,,,,0.38956,1,0,9,9,2,1,stimuli/blank.png,Happy,a,,,,,,,,
,,,,,,,,,,,,hb,1,001,male,2020-08-28_19h08.49.040,openIAT,2020.1.0rc3,Win32,60,,,,,,,,,,,,,,,,,,,,,0,0,0,0,1,pos_neg_train.xlsx,"A = 
Positive","L = 
Negative"
,,,,,,,,,,,,hb,1,001,male,2020-08-28_19h08.49.040,openIAT,2020.1.0rc3,Win32,60,a,1,1.200835,,,,,,,,1.200835,1,0,0,0,3,1,stimuli/white_2.jpg,NaN,a,,,,,,,,
,,,,,,,,,,,,hb,1,001,male,2020-08-28_19h08.49.040,openIAT,2020.1.0rc3,Win32,60,l,1,0.857825,,,,,,,,0.857825,1,0,1,1,2,1,stimuli/black_2.jpg,NaN,l,,,,,,,,
,,,,,,,,,,,,hb,1,001,male,2020-08-28_19h08.49.040,openIAT,2020.1.0rc3,Win32,60,l,0,0.61024,,,,,,,,0.61024,0,0,2,2,5,1,stimuli/white_3.jpg,NaN,a,,,,,,,,
,,,,,,,,,,,,hb,1,001,male,2020-08-28_19h08.49.040,openIAT,2020.1.0rc3,Win32,60,a,1,1.75628,,,,,,,,1.75628,1,0,3,3,1,1,stimuli/white_1.jpg,NaN,a,,,,,,,,
,,,,,,,,,,,,hb,1,001,male,2020-08-28_19h08.49.040,openIAT,2020.1.0rc3,Win32,60,l,1,1.169415,,,,,,,,1.169415,1,0,4,4,0,1,stimuli/black_1.jpg,NaN,l,,,,,,,,
,,,,,,,,,,,,hb,1,001,male,2020-08-28_19h08.49.040,openIAT,2020.1.0rc3,Win32,60,l,1,0.89158,,,,,,,,0.89158,1,0,5,5,6,1,stimuli/black_4.jpg,NaN,l,,,,,,,,
,,,,,,,,,,,,hb,1,001,male,2020-08-28_19h08.49.040,openIAT,2020.1.0rc3,Win32,60,a,1,1.036015,,,,,,,,1.036015,1,0,6,6,7,1,stimuli/white_4.jpg,NaN,a,,,,,,,,
,,,,,,,,,,,,hb,1,001,male,2020-08-28_19h08.49.040,openIAT,2020.1.0rc3,Win32,60,l,1,0.614105,,,,,,,,0.614105,1,0,7,7,4,1,stimuli/black_3.jpg,NaN,l,,,,,,,,
,,,,,,,,,,,,hb,1,001,male,2020-08-28_19h08.49.040,openIAT,2020.1.0rc3,Win32,60,l,1,0.614625,,,,,,,,0.614625,1,0,8,8,8,1,stimuli/black_5.jpg,NaN,l,,,,,,,,
,,,,,,,,,,,,hb,1,001,male,2020-08-28_19h08.49.040,openIAT,2020.1.0rc3,Win32,60,a,1,0.548145,,,,,,,,0.548145,1,0,9,9,9,1,stimuli/white_5.jpg,NaN,a,,,,,,,,
,,,,,,,,,,,,hb,1,001,male,2020-08-28_19h08.49.040,openIAT,2020.1.0rc3,Win32,60,,,,,,,,,,,,,,,,,,,,,0,1,1,1,1,cong_train.xlsx,"A = 
White","L = 
Black"
,,,,,,,,,,,,hb,1,001,male,2020-08-28_19h08.49.040,openIAT,2020.1.0rc3,Win32,60,a,1,1.049125,,,,,,,,1.049125,1,0,0,0,12,1,stimuli/blank.png,Happy,a,,,,,,,,
,,,,,,,,,,,,hb,1,001,male,2020-08-28_19h08.49.040,openIAT,2020.1.0rc3,Win32,60,l,1,0.72478,,,,,,,,0.72478,1,0,1,1,15,1,stimuli/blank.png,Agony,l,,,,,,,,
,,,,,,,,,,,,hb,1,001,male,2020-08-28_19h08.49.040,openIAT,2020.1.0rc3,Win32,60,l,1,0.69148,,,,,,,,0.69148,1,0,2,2,8,1,stimuli/black_5.jpg,NaN,l,,,,,,,,
,,,,,,,,,,,,hb,1,001,male,2020-08-28_19h08.49.040,openIAT,2020.1.0rc3,Win32,60,a,1,0.49953,,,,,,,,0.49953,1,0,3,3,1,1,stimuli/white_1.jpg,NaN,a,,,,,,,,
,,,,,,,,,,,,hb,1,001,male,2020-08-28_19h08.49.040,openIAT,2020.1.0rc3,Win32,60,a,1,0.70437,,,,,,,,0.70437,1,0,4,4,16,1,stimuli/blank.png,Love,a,,,,,,,,
,,,,,,,,,,,,hb,1,001,male,2020-08-28_19h08.49.040,openIAT,2020.1.0rc3,Win32,60,l,1,0.591565,,,,,,,,0.591565,1,0,5,5,2,1,stimuli/black_2.jpg,NaN,l,,,,,,,,
,,,,,,,,,,,,hb,1,001,male,2020-08-28_19h08.49.040,openIAT,2020.1.0rc3,Win32,60,l,1,0.748395,,,,,,,,0.748395,1,0,6,6,11,1,stimuli/blank.png,Bad,l,,,,,,,,
,,,,,,,,,,,,hb,1,001,male,2020-08-28_19h08.49.040,openIAT,2020.1.0rc3,Win32,60,l,1,0.752165,,,,,,,,0.752165,1,0,7,7,19,1,stimuli/blank.png,Nasty,l,,,,,,,,
,,,,,,,,,,,,hb,1,001,male,2020-08-28_19h08.49.040,openIAT,2020.1.0rc3,Win32,60,a,1,0.508545,,,,,,,,0.508545,1,0,8,8,18,1,stimuli/blank.png,Joy,a,,,,,,,,
,,,,,,,,,,,,hb,1,001,male,2020-08-28_19h08.49.040,openIAT,2020.1.0rc3,Win32,60,l,1,0.715335,,,,,,,,0.715335,1,0,9,9,13,1,stimuli/blank.png,Hurt,l,,,,,,,,
,,,,,,,,,,,,hb,1,001,male,2020-08-28_19h08.49.040,openIAT,2020.1.0rc3,Win32,60,a,1,0.747845,,,,,,,,0.747845,1,0,10,10,3,1,stimuli/white_2.jpg,NaN,a,,,,,,,,
,,,,,,,,,,,,hb,1,001,male,2020-08-28_19h08.49.040,openIAT,2020.1.0rc3,Win32,60,a,1,0.631225,,,,,,,,0.631225,1,0,11,11,5,1,stimuli/white_3.jpg,NaN,a,,,,,,,,
,,,,,,,,,,,,hb,1,001,male,2020-08-28_19h08.49.040,openIAT,2020.1.0rc3,Win32,60,l,1,0.57371,,,,,,,,0.57371,1,0,12,12,6,1,stimuli/black_4.jpg,NaN,l,,,,,,,,
,,,,,,,,,,,,hb,1,001,male,2020-08-28_19h08.49.040,openIAT,2020.1.0rc3,Win32,60,l,1,0.882655,,,,,,,,0.882655,1,0,13,13,17,1,stimuli/blank.png,Evil,l,,,,,,,,
,,,,,,,,,,,,hb,1,001,male,2020-08-28_19h08.49.040,openIAT,2020.1.0rc3,Win32,60,a,1,0.704335,,,,,,,,0.704335,1,0,14,14,14,1,stimuli/blank.png,Pleasure,a,,,,,,,,
,,,,,,,,,,,,hb,1,001,male,2020-08-28_19h08.49.040,openIAT,2020.1.0rc3,Win32,60,l,1,0.567805,,,,,,,,0.567805,1,0,15,15,0,1,stimuli/black_1.jpg,NaN,l,,,,,,,,
,,,,,,,,,,,,hb,1,001,male,2020-08-28_19h08.49.040,openIAT,2020.1.0rc3,Win32,60,a,1,0.91563,,,,,,,,0.91563,1,0,16,16,7,1,stimuli/white_4.jpg,NaN,a,,,,,,,,
,,,,,,,,,,,,hb,1,001,male,2020-08-28_19h08.49.040,openIAT,2020.1.0rc3,Win32,60,a,1,0.538665,,,,,,,,0.538665,1,0,17,17,9,1,stimuli/white_5.jpg,NaN,a,,,,,,,,
,,,,,,,,,,,,hb,1,001,male,2020-08-28_19h08.49.040,openIAT,2020.1.0rc3,Win32,60,a,1,0.50401,,,,,,,,0.50401,1,0,18,18,10,1,stimuli/blank.png,Good,a,,,,,,,,
,,,,,,,,,,,,hb,1,001,male,2020-08-28_19h08.49.040,openIAT,2020.1.0rc3,Win32,60,a,0,0.4133,,,,,,,,0.4133,0,0,19,19,4,1,stimuli/black_3.jpg,NaN,l,,,,,,,,
,,,,,,,,,,,,hb,1,001,male,2020-08-28_19h08.49.040,openIAT,2020.1.0rc3,Win32,60,,,,,,,,,,,,,,,,,,,,,0,2,2,2,1,cong_test.xlsx,"A = 
White or 
Positive","L = 
Black or 
Negative"
,,,,,,,,,,,,hb,1,001,male,2020-08-28_19h08.49.040,openIAT,2020.1.0rc3,Win32,60,a,0,0.54045,,,,,,,,0.54045,0,0,0,0,9,1,stimuli/white_5.jpg,,l,,,,,,,,
,,,,,,,,,,,,hb,1,001,male,2020-08-28_19h08.49.040,openIAT,2020.1.0rc3,Win32,60,l,1,0.73126,,,,,,,,0.73126,1,0,1,1,5,1,stimuli/white_3.jpg,,l,,,,,,,,
,,,,,,,,,,,,hb,1,001,male,2020-08-28_19h08.49.040,openIAT,2020.1.0rc3,Win32,60,l,1,0.465115,,,,,,,,0.465115,1,0,2,2,3,1,stimuli/white_2.jpg,,l,,,,,,,,
,,,,,,,,,,,,hb,1,001,male,2020-08-28_19h08.49.040,openIAT,2020.1.0rc3,Win32,60,l,1,0.991735,,,,,,,,0.991735,1,0,3,3,1,1,stimuli/white_1.jpg,,l,,,,,,,,
