instr_done_touch.x,instr_done_touch.y,instr_done_touch.leftButton,instr_done_touch.midButton,instr_done_touch.rightButton,instr_done_touch.clicked_name,instruct_pages.thisRepN,instruct_pages.thisTrialN,instruct_pages.thisN,instruct_pages.thisIndex,instruct_pages.ran,pageN,instruct_text,participant,order,session,gender,date,expName,psychopyVersion,OS,frameRate,key_resp.keys,key_resp.corr,touch_resp.x,touch_resp.y,touch_resp.leftButton,touch_resp.midButton,touch_resp.rightButton,touch_resp.time,touch_resp.clicked_name,rt,corr,trials.thisRepN,trials.thisTrialN,trials.thisN,trials.thisIndex,trials.ran,stimImage,stimWord,CorrAns,key_resp.rt,blocks.thisRepN,blocks.thisTrialN,blocks.thisN,blocks.thisIndex,blocks.ran,conds_file,label_left,label_right
-0.028619046,-0.387736257,1,0,0,instr_done_button,0,0,0,0,1,1,"You will be presented with words or images to classify into categories using either the 'A' or 'L' key. 
 
Try to go as fast as possible while making as few mistakes as possible. 
",hi,1,001,male,2023-09-12_12h29.46.266,openIAT,2020.1.0rc3,MacIntel,60,,,,,,,,,,,,,,,,,,,,,,,,,,,,
-0.026384226,-0.388239458,1,0,0,instr_done_button,0,1,1,1,1,2,"Keep in mind: 
 
1) Labels at the top of the screen indicate which catogory goes with which key. 
 
2) Each word or image has a correct catogory classification 
 
3) Keep your index fingers on the A and L keys to enable a rapid response. 
 
4) The test gives no results if you go slow- please try to go as fast as possible 
",hi,1,001,male,2023-09-12_12h29.46.266,openIAT,2020.1.0rc3,MacIntel,60,,,,,,,,,,,,,,,,,,,,,,,,,,,,
,,,,,,,,,,,,,hi,1,001,male,2023-09-12_12h29.46.266,openIAT,2020.1.0rc3,MacIntel,60,,0,-0.54982499,-0.320584022,1,0,0,1.0145,button_left,1.0145,1,0,0,0,0,1,stimuli/blank.png,Good,a,,,,,,,,,
,,,,,,,,,,,,,hi,1,001,male,2023-09-12_12h29.46.266,openIAT,2020.1.0rc3,MacIntel,60,,0,0.253191969,-0.247166951,1,0,0,1.1636,button_right,1.1636,0,0,1,1,2,1,stimuli/blank.png,Happy,a,,,,,,,,,
,,,,,,,,,,,,,hi,1,001,male,2023-09-12_12h29.46.266,openIAT,2020.1.0rc3,MacIntel,60,,0,-0.357945675,-0.245571815,1,0,0,0.2959,button_left,0.2959,0,0,2,2,1,1,stimuli/blank.png,Bad,l,,,,,,,,,
,,,,,,,,,,,,,hi,1,001,male,2023-09-12_12h29.46.266,openIAT,2020.1.0rc3,MacIntel,60,,0,-0.215104802,-0.261584388,1,0,0,2.6487,button_left,2.6487,0,0,3,3,9,1,stimuli/blank.png,Nasty,l,,,,,,,,,
,,,,,,,,,,,,,hi,1,001,male,2023-09-12_12h29.46.266,openIAT,2020.1.0rc3,MacIntel,60,,0,-0.082057699,-0.193794462,1,0,0,0.6648,button_right,0.6648,1,0,4,4,5,1,stimuli/blank.png,Agony,l,,,,,,,,,
,,,,,,,,,,,,,hi,1,001,male,2023-09-12_12h29.46.266,openIAT,2020.1.0rc3,MacIntel,60,,0,0.341064707,-0.260880449,1,0,0,0.3315,button_right,0.3315,1,0,5,5,3,1,stimuli/blank.png,Hurt,l,,,,,,,,,
,,,,,,,,,,,,,hi,1,001,male,2023-09-12_12h29.46.266,openIAT,2020.1.0rc3,MacIntel,60,,0,-0.259911431,-0.260194906,1,0,0,0.9655,button_left,0.9655,1,0,6,6,6,1,stimuli/blank.png,Love,a,,,,,,,,,
,,,,,,,,,,,,,hi,1,001,male,2023-09-12_12h29.46.266,openIAT,2020.1.0rc3,MacIntel,60,,0,0.517636787,-0.311410777,1,0,0,1.4807,button_right,1.4807,1,0,7,7,7,1,stimuli/blank.png,Evil,l,,,,,,,,,
,,,,,,,,,,,,,hi,1,001,male,2023-09-12_12h29.46.266,openIAT,2020.1.0rc3,MacIntel,60,l,0,,,,,,,,1.3354,0,0,8,8,8,1,stimuli/blank.png,Joy,a,1.3354,,,,,,,,
,,,,,,,,,,,,,hi,1,001,male,2023-09-12_12h29.46.266,openIAT,2020.1.0rc3,MacIntel,60,a,1,,,,,,,,2.04,1,0,9,9,4,1,stimuli/blank.png,Pleasure,a,2.04,,,,,,,,
,,,,,,,,,,,,,hi,1,001,male,2023-09-12_12h29.46.266,openIAT,2020.1.0rc3,MacIntel,60,,,,,,,,,,,,,,,,,,,,,0,0,0,0,1,pos_neg_train.xlsx,"A = 
Positive","L = 
Negative"
,,,,,,,,,,,,,hi,1,001,male,2023-09-12_12h29.46.266,openIAT,2020.1.0rc3,MacIntel,60,l,1,,,,,,,,2.7072,1,0,0,0,6,1,stimuli/black_4.jpg,NaN,l,2.7072,,,,,,,,
,,,,,,,,,,,,,hi,1,001,male,2023-09-12_12h29.46.266,openIAT,2020.1.0rc3,MacIntel,60,l,1,,,,,,,,1.8712,1,0,1,1,8,1,stimuli/black_5.jpg,NaN,l,1.8712,,,,,,,,
,,,,,,,,,,,,,hi,1,001,male,2023-09-12_12h29.46.266,openIAT,2020.1.0rc3,MacIntel,60,a,1,,,,,,,,1.0895,1,0,2,2,1,1,stimuli/white_1.jpg,NaN,a,1.0895,,,,,,,,
,,,,,,,,,,,,,hi,1,001,male,2023-09-12_12h29.46.266,openIAT,2020.1.0rc3,MacIntel,60,a,1,,,,,,,,0.9392,1,0,3,3,7,1,stimuli/white_4.jpg,NaN,a,0.9392,,,,,,,,
,,,,,,,,,,,,,hi,1,001,male,2023-09-12_12h29.46.266,openIAT,2020.1.0rc3,MacIntel,60,l,0,,,,,,,,0.939,0,0,4,4,5,1,stimuli/white_3.jpg,NaN,a,0.939,,,,,,,,
,,,,,,,,,,,,,hi,1,001,male,2023-09-12_12h29.46.266,openIAT,2020.1.0rc3,MacIntel,60,l,1,,,,,,,,0.7557,1,0,5,5,4,1,stimuli/black_3.jpg,NaN,l,0.7557,,,,,,,,
,,,,,,,,,,,,,hi,1,001,male,2023-09-12_12h29.46.266,openIAT,2020.1.0rc3,MacIntel,60,l,1,,,,,,,,1.2881,1,0,6,6,0,1,stimuli/black_1.jpg,NaN,l,1.2881,,,,,,,,
,,,,,,,,,,,,,hi,1,001,male,2023-09-12_12h29.46.266,openIAT,2020.1.0rc3,MacIntel,60,l,1,,,,,,,,0.7087,1,0,7,7,2,1,stimuli/black_2.jpg,NaN,l,0.7087,,,,,,,,
,,,,,,,,,,,,,hi,1,001,male,2023-09-12_12h29.46.266,openIAT,2020.1.0rc3,MacIntel,60,a,1,,,,,,,,1.0864,1,0,8,8,9,1,stimuli/white_5.jpg,NaN,a,1.0864,,,,,,,,
,,,,,,,,,,,,,hi,1,001,male,2023-09-12_12h29.46.266,openIAT,2020.1.0rc3,MacIntel,60,l,0,,,,,,,,0.3699,0,0,9,9,3,1,stimuli/white_2.jpg,NaN,a,0.3699,,,,,,,,
,,,,,,,,,,,,,hi,1,001,male,2023-09-12_12h29.46.266,openIAT,2020.1.0rc3,MacIntel,60,,,,,,,,,,,,,,,,,,,,,0,1,1,1,1,cong_train.xlsx,"A = 
White","L = 
Black"
,,,,,,,,,,,,,hi,1,001,male,2023-09-12_12h29.46.266,openIAT,2020.1.0rc3,MacIntel,60,a,1,,,,,,,,0.9024,1,0,0,0,12,1,stimuli/blank.png,Happy,a,0.9024,,,,,,,,
,,,,,,,,,,,,,hi,1,001,male,2023-09-12_12h29.46.266,openIAT,2020.1.0rc3,MacIntel,60,l,0,,,,,,,,1.4194,0,0,1,1,1,1,stimuli/white_1.jpg,NaN,a,1.4194,,,,,,,,
,,,,,,,,,,,,,hi,1,001,male,2023-09-12_12h29.46.266,openIAT,2020.1.0rc3,MacIntel,60,l,1,,,,,,,,1.2044,1,0,2,2,15,1,stimuli/blank.png,Agony,l,1.2044,,,,,,,,
,,,,,,,,,,,,,hi,1,001,male,2023-09-12_12h29.46.266,openIAT,2020.1.0rc3,MacIntel,60,l,1,,,,,,,,0.6046,1,0,3,3,11,1,stimuli/blank.png,Bad,l,0.6046,,,,,,,,
,,,,,,,,,,,,,hi,1,001,male,2023-09-12_12h29.46.266,openIAT,2020.1.0rc3,MacIntel,60,a,1,,,,,,,,1.0883,1,0,4,4,7,1,stimuli/white_4.jpg,NaN,a,1.0883,,,,,,,,
,,,,,,,,,,,,,hi,1,001,male,2023-09-12_12h29.46.266,openIAT,2020.1.0rc3,MacIntel,60,l,1,,,,,,,,0.6038,1,0,5,5,4,1,stimuli/black_3.jpg,NaN,l,0.6038,,,,,,,,
,,,,,,,,,,,,,hi,1,001,male,2023-09-12_12h29.46.266,openIAT,2020.1.0rc3,MacIntel,60,a,1,,,,,,,,0.557,1,0,6,6,3,1,stimuli/white_2.jpg,NaN,a,0.557,,,,,,,,
,,,,,,,,,,,,,hi,1,001,male,2023-09-12_12h29.46.266,openIAT,2020.1.0rc3,MacIntel,60,l,0,,,,,,,,0.5181,0,0,7,7,18,1,stimuli/blank.png,Joy,a,0.5181,,,,,,,,
,,,,,,,,,,,,,hi,1,001,male,2023-09-12_12h29.46.266,openIAT,2020.1.0rc3,MacIntel,60,l,1,,,,,,,,0.5862,1,0,8,8,2,1,stimuli/black_2.jpg,NaN,l,0.5862,,,,,,,,
,,,,,,,,,,,,,hi,1,001,male,2023-09-12_12h29.46.266,openIAT,2020.1.0rc3,MacIntel,60,l,1,,,,,,,,0.609,1,0,9,9,19,1,stimuli/blank.png,Nasty,l,0.609,,,,,,,,
,,,,,,,,,,,,,hi,1,001,male,2023-09-12_12h29.46.266,openIAT,2020.1.0rc3,MacIntel,60,l,1,,,,,,,,0.4544,1,0,10,10,17,1,stimuli/blank.png,Evil,l,0.4544,,,,,,,,
,,,,,,,,,,,,,hi,1,001,male,2023-09-12_12h29.46.266,openIAT,2020.1.0rc3,MacIntel,60,l,0,,,,,,,,0.3855,0,0,11,11,16,1,stimuli/blank.png,Love,a,0.3855,,,,,,,,
,,,,,,,,,,,,,hi,1,001,male,2023-09-12_12h29.46.266,openIAT,2020.1.0rc3,MacIntel,60,l,1,,,,,,,,0.6869,1,0,12,12,13,1,stimuli/blank.png,Hurt,l,0.6869,,,,,,,,
,,,,,,,,,,,,,hi,1,001,male,2023-09-12_12h29.46.266,openIAT,2020.1.0rc3,MacIntel,60,a,0,,,,,,,,0.8405,0,0,13,13,0,1,stimuli/black_1.jpg,NaN,l,0.8405,,,,,,,,
,,,,,,,,,,,,,hi,1,001,male,2023-09-12_12h29.46.266,openIAT,2020.1.0rc3,MacIntel,60,a,1,,,,,,,,0.4531,1,0,14,14,14,1,stimuli/blank.png,Pleasure,a,0.4531,,,,,,,,
,,,,,,,,,,,,,hi,1,001,male,2023-09-12_12h29.46.266,openIAT,2020.1.0rc3,MacIntel,60,a,1,,,,,,,,0.8518,1,0,15,15,9,1,stimuli/white_5.jpg,NaN,a,0.8518,,,,,,,,
,,,,,,,,,,,,,hi,1,001,male,2023-09-12_12h29.46.266,openIAT,2020.1.0rc3,MacIntel,60,l,1,,,,,,,,0.5245,1,0,16,16,8,1,stimuli/black_5.jpg,NaN,l,0.5245,,,,,,,,
,,,,,,,,,,,,,hi,1,001,male,2023-09-12_12h29.46.266,openIAT,2020.1.0rc3,MacIntel,60,a,1,,,,,,,,0.6976,1,0,17,17,5,1,stimuli/white_3.jpg,NaN,a,0.6976,,,,,,,,
,,,,,,,,,,,,,hi,1,001,male,2023-09-12_12h29.46.266,openIAT,2020.1.0rc3,MacIntel,60,a,1,,,,,,,,0.8726,1,0,18,18,10,1,stimuli/blank.png,Good,a,0.8726,,,,,,,,
,,,,,,,,,,,,,hi,1,001,male,2023-09-12_12h29.46.266,openIAT,2020.1.0rc3,MacIntel,60,l,1,,,,,,,,0.6203,1,0,19,19,6,1,stimuli/black_4.jpg,NaN,l,0.6203,,,,,,,,
,,,,,,,,,,,,,hi,1,001,male,2023-09-12_12h29.46.266,openIAT,2020.1.0rc3,MacIntel,60,,,,,,,,,,,,,,,,,,,,,0,2,2,2,1,cong_test.xlsx,"A = 
White or 
Positive","L = 
Black or 
Negative"
