instr_done_touch.x,instr_done_touch.y,instr_done_touch.leftButton,instr_done_touch.midButton,instr_done_touch.rightButton,instr_done_touch.clicked_name,instruct_pages.thisRepN,instruct_pages.thisTrialN,instruct_pages.thisN,instruct_pages.thisIndex,instruct_pages.ran,pageN,instruct_text,participant,order,session,gender,date,expName,psychopyVersion,OS,frameRate,key_resp.keys,key_resp.corr,key_resp.rt,touch_resp.x,touch_resp.y,touch_resp.leftButton,touch_resp.midButton,touch_resp.rightButton,touch_resp.time,touch_resp.clicked_name,rt,corr,trials.thisRepN,trials.thisTrialN,trials.thisN,trials.thisIndex,trials.ran,stimImage,stimWord,CorrAns
0.030555556,-0.392592593,1,0,0,instr_done_button,0,0,0,0,1,1,"You will be presented with words or images to classify into categories using either the 'A' or 'L' key. 
 
Try to go as fast as possible while making as few mistakes as possible. 
",hmmm,1,001,male,2020-04-12_16h33.17.794,openIAT,2020.1.0rc3,Win32,60,,,,,,,,,,,,,,,,,,,,
0.077777778,-0.328703704,0,0,0,,0,1,1,1,1,2,"Keep in mind: 
 
1) Labels at the top of the screen indicate which catogory goes with which key. 
 
2) Each word or image has a correct catogory classification 
 
3) Keep your index fingers on the A and L keys to enable a rapid response. 
 
4) The test gives no results if you go slow- please try to go as fast as possible 
",hmmm,1,001,male,2020-04-12_16h33.17.794,openIAT,2020.1.0rc3,Win32,60,,,,,,,,,,,,,,,,,,,,
,,,,,,,,,,,,,hmmm,1,001,male,2020-04-12_16h33.17.794,openIAT,2020.1.0rc3,Win32,60,a,1,0.74766,,,,,,,,0.74766,1,0,0,0,0,1,stimuli/blank.png,Good,a
,,,,,,,,,,,,,hmmm,1,001,male,2020-04-12_16h33.17.794,openIAT,2020.1.0rc3,Win32,60,l,1,0.909475,,,,,,,,0.909475,1,0,1,1,1,1,stimuli/blank.png,Bad,l
,,,,,,,,,,,,,hmmm,1,001,male,2020-04-12_16h33.17.794,openIAT,2020.1.0rc3,Win32,60,l,1,1.12872,,,,,,,,1.12872,1,0,2,2,5,1,stimuli/blank.png,Agony,l
,,,,,,,,,,,,,hmmm,1,001,male,2020-04-12_16h33.17.794,openIAT,2020.1.0rc3,Win32,60,a,1,0.56257,,,,,,,,0.56257,1,0,3,3,2,1,stimuli/blank.png,Happy,a
,,,,,,,,,,,,,hmmm,1,001,male,2020-04-12_16h33.17.794,openIAT,2020.1.0rc3,Win32,60,a,1,0.857385,,,,,,,,0.857385,1,0,4,4,8,1,stimuli/blank.png,Joy,a
,,,,,,,,,,,,,hmmm,1,001,male,2020-04-12_16h33.17.794,openIAT,2020.1.0rc3,Win32,60,l,1,1.014685,,,,,,,,1.014685,1,0,5,5,3,1,stimuli/blank.png,Hurt,l
