instr_done_touch.x,instr_done_touch.y,instr_done_touch.leftButton,instr_done_touch.midButton,instr_done_touch.rightButton,instruct_pages.thisRepN,instruct_pages.thisTrialN,instruct_pages.thisN,instruct_pages.thisIndex,instruct_pages.ran,pageN,instruct_text,participant,order,session,gender,date,expName,psychopyVersion,OS,frameRate,key_resp.keys,key_resp.corr,key_resp.rt,touch_resp.x,touch_resp.y,touch_resp.leftButton,touch_resp.midButton,touch_resp.rightButton,touch_resp.time,touch_resp.clicked_name,rt,corr,trials.thisRepN,trials.thisTrialN,trials.thisN,trials.thisIndex,trials.ran,stimImage,stimWord,CorrAns,blocks.thisRepN,blocks.thisTrialN,blocks.thisN,blocks.thisIndex,blocks.ran,conds_file,label_left,label_right
0.115740756,-0.32777779,0,0,0,0,0,0,0,1,1,"You will be presented with words or images to classify into categories using either the 'A' or 'L' key. 
 
Try to go as fast as possible while making as few mistakes as possible. 
",IMERYS_711,1,001,male,2022-05-25_15h15.37.333,openIAT,2020.1.0rc3,Win32,60,,,,,,,,,,,,,,,,,,,,,,,,,,,,
0.115740756,-0.32777779,0,0,0,0,1,1,1,1,2,"Keep in mind: 
 
1) Labels at the top of the screen indicate which catogory goes with which key. 
 
2) Each word or image has a correct catogory classification 
 
3) Keep your index fingers on the A and L keys to enable a rapid response. 
 
4) The test gives no results if you go slow- please try to go as fast as possible 
",IMERYS_711,1,001,male,2022-05-25_15h15.37.333,openIAT,2020.1.0rc3,Win32,60,,,,,,,,,,,,,,,,,,,,,,,,,,,,
,,,,,,,,,,,,IMERYS_711,1,001,male,2022-05-25_15h15.37.333,openIAT,2020.1.0rc3,Win32,60,a,1,2.288599999,,,,,,,,2.288599999,1,0,0,0,8,1,stimuli/blank.png,Joy,a,,,,,,,,
,,,,,,,,,,,,IMERYS_711,1,001,male,2022-05-25_15h15.37.333,openIAT,2020.1.0rc3,Win32,60,l,1,4.9342,,,,,,,,4.9342,1,0,1,1,9,1,stimuli/blank.png,Nasty,l,,,,,,,,
,,,,,,,,,,,,IMERYS_711,1,001,male,2022-05-25_15h15.37.333,openIAT,2020.1.0rc3,Win32,60,a,1,1.5813,,,,,,,,1.5813,1,0,2,2,6,1,stimuli/blank.png,Love,a,,,,,,,,
,,,,,,,,,,,,IMERYS_711,1,001,male,2022-05-25_15h15.37.333,openIAT,2020.1.0rc3,Win32,60,l,1,3.359900001,,,,,,,,3.359900001,1,0,3,3,3,1,stimuli/blank.png,Hurt,l,,,,,,,,
,,,,,,,,,,,,IMERYS_711,1,001,male,2022-05-25_15h15.37.333,openIAT,2020.1.0rc3,Win32,60,a,1,2.2487,,,,,,,,2.2487,1,0,4,4,4,1,stimuli/blank.png,Pleasure,a,,,,,,,,
,,,,,,,,,,,,IMERYS_711,1,001,male,2022-05-25_15h15.37.333,openIAT,2020.1.0rc3,Win32,60,l,1,1.054900001,,,,,,,,1.054900001,1,0,5,5,5,1,stimuli/blank.png,Agony,l,,,,,,,,
,,,,,,,,,,,,IMERYS_711,1,001,male,2022-05-25_15h15.37.333,openIAT,2020.1.0rc3,Win32,60,a,1,0.697299999,,,,,,,,0.697299999,1,0,6,6,2,1,stimuli/blank.png,Happy,a,,,,,,,,
,,,,,,,,,,,,IMERYS_711,1,001,male,2022-05-25_15h15.37.333,openIAT,2020.1.0rc3,Win32,60,l,1,0.7654,,,,,,,,0.7654,1,0,7,7,1,1,stimuli/blank.png,Bad,l,,,,,,,,
,,,,,,,,,,,,IMERYS_711,1,001,male,2022-05-25_15h15.37.333,openIAT,2020.1.0rc3,Win32,60,a,1,0.7031,,,,,,,,0.7031,1,0,8,8,0,1,stimuli/blank.png,Good,a,,,,,,,,
,,,,,,,,,,,,IMERYS_711,1,001,male,2022-05-25_15h15.37.333,openIAT,2020.1.0rc3,Win32,60,l,1,3.594099999,,,,,,,,3.594099999,1,0,9,9,7,1,stimuli/blank.png,Evil,l,,,,,,,,
,,,,,,,,,,,,IMERYS_711,1,001,male,2022-05-25_15h15.37.333,openIAT,2020.1.0rc3,Win32,60,,,,,,,,,,,,,,,,,,,,,0,0,0,0,1,pos_neg_train.xlsx,"A = 
Positive","L = 
Negative"
,,,,,,,,,,,,IMERYS_711,1,001,male,2022-05-25_15h15.37.333,openIAT,2020.1.0rc3,Win32,60,l,1,5.822,,,,,,,,5.822,1,0,0,0,0,1,stimuli/black_1.jpg,NaN,l,,,,,,,,
,,,,,,,,,,,,IMERYS_711,1,001,male,2022-05-25_15h15.37.333,openIAT,2020.1.0rc3,Win32,60,l,1,1.3848,,,,,,,,1.3848,1,0,1,1,4,1,stimuli/black_3.jpg,NaN,l,,,,,,,,
,,,,,,,,,,,,IMERYS_711,1,001,male,2022-05-25_15h15.37.333,openIAT,2020.1.0rc3,Win32,60,l,1,1.6405,,,,,,,,1.6405,1,0,2,2,6,1,stimuli/black_4.jpg,NaN,l,,,,,,,,
,,,,,,,,,,,,IMERYS_711,1,001,male,2022-05-25_15h15.37.333,openIAT,2020.1.0rc3,Win32,60,a,1,1.5752,,,,,,,,1.5752,1,0,3,3,7,1,stimuli/white_4.jpg,NaN,a,,,,,,,,
,,,,,,,,,,,,IMERYS_711,1,001,male,2022-05-25_15h15.37.333,openIAT,2020.1.0rc3,Win32,60,a,1,0.8262,,,,,,,,0.8262,1,0,4,4,5,1,stimuli/white_3.jpg,NaN,a,,,,,,,,
,,,,,,,,,,,,IMERYS_711,1,001,male,2022-05-25_15h15.37.333,openIAT,2020.1.0rc3,Win32,60,l,1,0.8887,,,,,,,,0.8887,1,0,5,5,8,1,stimuli/black_5.jpg,NaN,l,,,,,,,,
,,,,,,,,,,,,IMERYS_711,1,001,male,2022-05-25_15h15.37.333,openIAT,2020.1.0rc3,Win32,60,l,1,2.0589,,,,,,,,2.0589,1,0,6,6,2,1,stimuli/black_2.jpg,NaN,l,,,,,,,,
,,,,,,,,,,,,IMERYS_711,1,001,male,2022-05-25_15h15.37.333,openIAT,2020.1.0rc3,Win32,60,a,1,1.863099999,,,,,,,,1.863099999,1,0,7,7,9,1,stimuli/white_5.jpg,NaN,a,,,,,,,,
,,,,,,,,,,,,IMERYS_711,1,001,male,2022-05-25_15h15.37.333,openIAT,2020.1.0rc3,Win32,60,a,1,1.867,,,,,,,,1.867,1,0,8,8,1,1,stimuli/white_1.jpg,NaN,a,,,,,,,,
,,,,,,,,,,,,IMERYS_711,1,001,male,2022-05-25_15h15.37.333,openIAT,2020.1.0rc3,Win32,60,a,1,0.6741,,,,,,,,0.6741,1,0,9,9,3,1,stimuli/white_2.jpg,NaN,a,,,,,,,,
,,,,,,,,,,,,IMERYS_711,1,001,male,2022-05-25_15h15.37.333,openIAT,2020.1.0rc3,Win32,60,,,,,,,,,,,,,,,,,,,,,0,1,1,1,1,cong_train.xlsx,"A = 
White","L = 
Black"
,,,,,,,,,,,,IMERYS_711,1,001,male,2022-05-25_15h15.37.333,openIAT,2020.1.0rc3,Win32,60,l,1,1.919,,,,,,,,1.919,1,0,0,0,15,1,stimuli/blank.png,Agony,l,,,,,,,,
,,,,,,,,,,,,IMERYS_711,1,001,male,2022-05-25_15h15.37.333,openIAT,2020.1.0rc3,Win32,60,a,1,0.8602,,,,,,,,0.8602,1,0,1,1,10,1,stimuli/blank.png,Good,a,,,,,,,,
,,,,,,,,,,,,IMERYS_711,1,001,male,2022-05-25_15h15.37.333,openIAT,2020.1.0rc3,Win32,60,a,1,0.7058,,,,,,,,0.7058,1,0,2,2,9,1,stimuli/white_5.jpg,NaN,a,,,,,,,,
,,,,,,,,,,,,IMERYS_711,1,001,male,2022-05-25_15h15.37.333,openIAT,2020.1.0rc3,Win32,60,a,1,0.807,,,,,,,,0.807,1,0,3,3,18,1,stimuli/blank.png,Joy,a,,,,,,,,
,,,,,,,,,,,,IMERYS_711,1,001,male,2022-05-25_15h15.37.333,openIAT,2020.1.0rc3,Win32,60,l,1,0.8248,,,,,,,,0.8248,1,0,4,4,17,1,stimuli/blank.png,Evil,l,,,,,,,,
,,,,,,,,,,,,IMERYS_711,1,001,male,2022-05-25_15h15.37.333,openIAT,2020.1.0rc3,Win32,60,l,1,1.4865,,,,,,,,1.4865,1,0,5,5,13,1,stimuli/blank.png,Hurt,l,,,,,,,,
,,,,,,,,,,,,IMERYS_711,1,001,male,2022-05-25_15h15.37.333,openIAT,2020.1.0rc3,Win32,60,a,0,1.1475,,,,,,,,1.1475,0,0,6,6,0,1,stimuli/black_1.jpg,NaN,l,,,,,,,,
,,,,,,,,,,,,IMERYS_711,1,001,male,2022-05-25_15h15.37.333,openIAT,2020.1.0rc3,Win32,60,l,1,2.4115,,,,,,,,2.4115,1,0,7,7,19,1,stimuli/blank.png,Nasty,l,,,,,,,,
,,,,,,,,,,,,IMERYS_711,1,001,male,2022-05-25_15h15.37.333,openIAT,2020.1.0rc3,Win32,60,l,1,0.912400001,,,,,,,,0.912400001,1,0,8,8,11,1,stimuli/blank.png,Bad,l,,,,,,,,
,,,,,,,,,,,,IMERYS_711,1,001,male,2022-05-25_15h15.37.333,openIAT,2020.1.0rc3,Win32,60,a,0,1.054299999,,,,,,,,1.054299999,0,0,9,9,4,1,stimuli/black_3.jpg,NaN,l,,,,,,,,
,,,,,,,,,,,,IMERYS_711,1,001,male,2022-05-25_15h15.37.333,openIAT,2020.1.0rc3,Win32,60,a,1,1.9085,,,,,,,,1.9085,1,0,10,10,14,1,stimuli/blank.png,Pleasure,a,,,,,,,,
,,,,,,,,,,,,IMERYS_711,1,001,male,2022-05-25_15h15.37.333,openIAT,2020.1.0rc3,Win32,60,a,1,0.8594,,,,,,,,0.8594,1,0,11,11,7,1,stimuli/white_4.jpg,NaN,a,,,,,,,,
,,,,,,,,,,,,IMERYS_711,1,001,male,2022-05-25_15h15.37.333,openIAT,2020.1.0rc3,Win32,60,a,0,0.7638,,,,,,,,0.7638,0,0,12,12,6,1,stimuli/black_4.jpg,NaN,l,,,,,,,,
,,,,,,,,,,,,IMERYS_711,1,001,male,2022-05-25_15h15.37.333,openIAT,2020.1.0rc3,Win32,60,a,0,1.0445,,,,,,,,1.0445,0,0,13,13,2,1,stimuli/black_2.jpg,NaN,l,,,,,,,,
,,,,,,,,,,,,IMERYS_711,1,001,male,2022-05-25_15h15.37.333,openIAT,2020.1.0rc3,Win32,60,a,0,4.6135,,,,,,,,4.6135,0,0,14,14,8,1,stimuli/black_5.jpg,NaN,l,,,,,,,,
,,,,,,,,,,,,IMERYS_711,1,001,male,2022-05-25_15h15.37.333,openIAT,2020.1.0rc3,Win32,60,a,1,1.5037,,,,,,,,1.5037,1,0,15,15,5,1,stimuli/white_3.jpg,NaN,a,,,,,,,,
,,,,,,,,,,,,IMERYS_711,1,001,male,2022-05-25_15h15.37.333,openIAT,2020.1.0rc3,Win32,60,a,1,0.731900001,,,,,,,,0.731900001,1,0,16,16,3,1,stimuli/white_2.jpg,NaN,a,,,,,,,,
,,,,,,,,,,,,IMERYS_711,1,001,male,2022-05-25_15h15.37.333,openIAT,2020.1.0rc3,Win32,60,a,1,0.7921,,,,,,,,0.7921,1,0,17,17,1,1,stimuli/white_1.jpg,NaN,a,,,,,,,,
,,,,,,,,,,,,IMERYS_711,1,001,male,2022-05-25_15h15.37.333,openIAT,2020.1.0rc3,Win32,60,a,1,2.564,,,,,,,,2.564,1,0,18,18,12,1,stimuli/blank.png,Happy,a,,,,,,,,
,,,,,,,,,,,,IMERYS_711,1,001,male,2022-05-25_15h15.37.333,openIAT,2020.1.0rc3,Win32,60,a,1,0.5844,,,,,,,,0.5844,1,0,19,19,16,1,stimuli/blank.png,Love,a,,,,,,,,
,,,,,,,,,,,,IMERYS_711,1,001,male,2022-05-25_15h15.37.333,openIAT,2020.1.0rc3,Win32,60,,,,,,,,,,,,,,,,,,,,,0,2,2,2,1,cong_test.xlsx,"A = 
White or 
Positive","L = 
Black or 
Negative"
,,,,,,,,,,,,IMERYS_711,1,001,male,2022-05-25_15h15.37.333,openIAT,2020.1.0rc3,Win32,60,l,1,13.9095,,,,,,,,13.9095,1,0,0,0,5,1,stimuli/white_3.jpg,,l,,,,,,,,
,,,,,,,,,,,,IMERYS_711,1,001,male,2022-05-25_15h15.37.333,openIAT,2020.1.0rc3,Win32,60,a,1,2.0638,,,,,,,,2.0638,1,0,1,1,8,1,stimuli/black_5.jpg,,a,,,,,,,,
,,,,,,,,,,,,IMERYS_711,1,001,male,2022-05-25_15h15.37.333,openIAT,2020.1.0rc3,Win32,60,a,0,1.5165,,,,,,,,1.5165,0,0,2,2,1,1,stimuli/white_1.jpg,,l,,,,,,,,
,,,,,,,,,,,,IMERYS_711,1,001,male,2022-05-25_15h15.37.333,openIAT,2020.1.0rc3,Win32,60,a,1,2.074099999,,,,,,,,2.074099999,1,0,3,3,6,1,stimuli/black_4.jpg,,a,,,,,,,,
,,,,,,,,,,,,IMERYS_711,1,001,male,2022-05-25_15h15.37.333,openIAT,2020.1.0rc3,Win32,60,a,1,2.5037,,,,,,,,2.5037,1,0,4,4,4,1,stimuli/black_3.jpg,,a,,,,,,,,
,,,,,,,,,,,,IMERYS_711,1,001,male,2022-05-25_15h15.37.333,openIAT,2020.1.0rc3,Win32,60,a,1,1.6153,,,,,,,,1.6153,1,0,5,5,0,1,stimuli/black_1.jpg,,a,,,,,,,,
,,,,,,,,,,,,IMERYS_711,1,001,male,2022-05-25_15h15.37.333,openIAT,2020.1.0rc3,Win32,60,l,1,2.2483,,,,,,,,2.2483,1,0,6,6,7,1,stimuli/white_4.jpg,,l,,,,,,,,
,,,,,,,,,,,,IMERYS_711,1,001,male,2022-05-25_15h15.37.333,openIAT,2020.1.0rc3,Win32,60,a,1,1.4381,,,,,,,,1.4381,1,0,7,7,2,1,stimuli/black_2.jpg,,a,,,,,,,,
,,,,,,,,,,,,IMERYS_711,1,001,male,2022-05-25_15h15.37.333,openIAT,2020.1.0rc3,Win32,60,l,1,4.0903,,,,,,,,4.0903,1,0,8,8,3,1,stimuli/white_2.jpg,,l,,,,,,,,
,,,,,,,,,,,,IMERYS_711,1,001,male,2022-05-25_15h15.37.333,openIAT,2020.1.0rc3,Win32,60,l,1,0.8562,,,,,,,,0.8562,1,0,9,9,9,1,stimuli/white_5.jpg,,l,,,,,,,,
,,,,,,,,,,,,IMERYS_711,1,001,male,2022-05-25_15h15.37.333,openIAT,2020.1.0rc3,Win32,60,,,,,,,,,,,,,,,,,,,,,0,3,3,3,1,incong_train.xlsx,"A = 
Black","L = 
White"
,,,,,,,,,,,,IMERYS_711,1,001,male,2022-05-25_15h15.37.333,openIAT,2020.1.0rc3,Win32,60,l,1,3.3658,,,,,,,,3.3658,1,0,0,0,15,1,stimuli/blank.png,Agony,l,,,,,,,,
,,,,,,,,,,,,IMERYS_711,1,001,male,2022-05-25_15h15.37.333,openIAT,2020.1.0rc3,Win32,60,a,0,3.2548,,,,,,,,3.2548,0,0,1,1,9,1,stimuli/white_5.jpg,,l,,,,,,,,
,,,,,,,,,,,,IMERYS_711,1,001,male,2022-05-25_15h15.37.333,openIAT,2020.1.0rc3,Win32,60,a,1,1.020099999,,,,,,,,1.020099999,1,0,2,2,16,1,stimuli/blank.png,Love,a,,,,,,,,
,,,,,,,,,,,,IMERYS_711,1,001,male,2022-05-25_15h15.37.333,openIAT,2020.1.0rc3,Win32,60,l,1,1.007400001,,,,,,,,1.007400001,1,0,3,3,17,1,stimuli/blank.png,Evil,l,,,,,,,,
,,,,,,,,,,,,IMERYS_711,1,001,male,2022-05-25_15h15.37.333,openIAT,2020.1.0rc3,Win32,60,l,1,2.311,,,,,,,,2.311,1,0,4,4,11,1,stimuli/blank.png,Bad,l,,,,,,,,
,,,,,,,,,,,,IMERYS_711,1,001,male,2022-05-25_15h15.37.333,openIAT,2020.1.0rc3,Win32,60,a,1,1.9202,,,,,,,,1.9202,1,0,5,5,2,1,stimuli/black_2.jpg,,a,,,,,,,,
,,,,,,,,,,,,IMERYS_711,1,001,male,2022-05-25_15h15.37.333,openIAT,2020.1.0rc3,Win32,60,a,0,1.8785,,,,,,,,1.8785,0,0,6,6,5,1,stimuli/white_3.jpg,,l,,,,,,,,
,,,,,,,,,,,,IMERYS_711,1,001,male,2022-05-25_15h15.37.333,openIAT,2020.1.0rc3,Win32,60,a,1,4.0622,,,,,,,,4.0622,1,0,7,7,4,1,stimuli/black_3.jpg,,a,,,,,,,,
,,,,,,,,,,,,IMERYS_711,1,001,male,2022-05-25_15h15.37.333,openIAT,2020.1.0rc3,Win32,60,a,1,2.4746,,,,,,,,2.4746,1,0,8,8,0,1,stimuli/black_1.jpg,,a,,,,,,,,
,,,,,,,,,,,,IMERYS_711,1,001,male,2022-05-25_15h15.37.333,openIAT,2020.1.0rc3,Win32,60,l,1,1.8461,,,,,,,,1.8461,1,0,9,9,13,1,stimuli/blank.png,Hurt,l,,,,,,,,
,,,,,,,,,,,,IMERYS_711,1,001,male,2022-05-25_15h15.37.333,openIAT,2020.1.0rc3,Win32,60,a,1,6.097900001,,,,,,,,6.097900001,1,0,10,10,6,1,stimuli/black_4.jpg,,a,,,,,,,,
,,,,,,,,,,,,IMERYS_711,1,001,male,2022-05-25_15h15.37.333,openIAT,2020.1.0rc3,Win32,60,a,1,1.0808,,,,,,,,1.0808,1,0,11,11,12,1,stimuli/blank.png,Happy,a,,,,,,,,
,,,,,,,,,,,,IMERYS_711,1,001,male,2022-05-25_15h15.37.333,openIAT,2020.1.0rc3,Win32,60,a,1,1.2381,,,,,,,,1.2381,1,0,12,12,18,1,stimuli/blank.png,Joy,a,,,,,,,,
,,,,,,,,,,,,IMERYS_711,1,001,male,2022-05-25_15h15.37.333,openIAT,2020.1.0rc3,Win32,60,l,1,1.907599999,,,,,,,,1.907599999,1,0,13,13,19,1,stimuli/blank.png,Nasty,l,,,,,,,,
,,,,,,,,,,,,IMERYS_711,1,001,male,2022-05-25_15h15.37.333,openIAT,2020.1.0rc3,Win32,60,a,0,3.633,,,,,,,,3.633,0,0,14,14,1,1,stimuli/white_1.jpg,,l,,,,,,,,
,,,,,,,,,,,,IMERYS_711,1,001,male,2022-05-25_15h15.37.333,openIAT,2020.1.0rc3,Win32,60,l,1,3.409700001,,,,,,,,3.409700001,1,0,15,15,7,1,stimuli/white_4.jpg,,l,,,,,,,,
,,,,,,,,,,,,IMERYS_711,1,001,male,2022-05-25_15h15.37.333,openIAT,2020.1.0rc3,Win32,60,a,1,1.6607,,,,,,,,1.6607,1,0,16,16,10,1,stimuli/blank.png,Good,a,,,,,,,,
,,,,,,,,,,,,IMERYS_711,1,001,male,2022-05-25_15h15.37.333,openIAT,2020.1.0rc3,Win32,60,a,1,4.6568,,,,,,,,4.6568,1,0,17,17,8,1,stimuli/black_5.jpg,,a,,,,,,,,
,,,,,,,,,,,,IMERYS_711,1,001,male,2022-05-25_15h15.37.333,openIAT,2020.1.0rc3,Win32,60,a,0,2.72,,,,,,,,2.72,0,0,18,18,3,1,stimuli/white_2.jpg,,l,,,,,,,,
,,,,,,,,,,,,IMERYS_711,1,001,male,2022-05-25_15h15.37.333,openIAT,2020.1.0rc3,Win32,60,a,1,2.3408,,,,,,,,2.3408,1,0,19,19,14,1,stimuli/blank.png,Pleasure,a,,,,,,,,
