instr_done_touch.x,instr_done_touch.y,instr_done_touch.leftButton,instr_done_touch.midButton,instr_done_touch.rightButton,instr_done_touch.clicked_name,instruct_pages.thisRepN,instruct_pages.thisTrialN,instruct_pages.thisN,instruct_pages.thisIndex,instruct_pages.ran,pageN,instruct_text,participant,order,session,gender,date,expName,psychopyVersion,OS,frameRate,key_resp.keys,key_resp.corr,touch_resp.x,touch_resp.y,touch_resp.leftButton,touch_resp.midButton,touch_resp.rightButton,touch_resp.time,touch_resp.clicked_name,rt,corr,trials.thisRepN,trials.thisTrialN,trials.thisN,trials.thisIndex,trials.ran,stimImage,stimWord,CorrAns,blocks.thisRepN,blocks.thisTrialN,blocks.thisN,blocks.thisIndex,blocks.ran,conds_file,label_left,label_right
-0.055555556,-0.392592593,1,0,0,instr_done_button,0,0,0,0,1,1,"You will be presented with words or images to classify into categories using either the 'A' or 'L' key. 
 
Try to go as fast as possible while making as few mistakes as possible. 
",IMERYS_123,2,002,female,2022-05-25_15h13.31.064,openIAT,2020.1.0rc3,Win32,60,,,,,,,,,,,,,,,,,,,,,,,,,,,
0.000925926,-0.411111111,1,0,0,instr_done_button,0,1,1,1,1,2,"Keep in mind: 
 
1) Labels at the top of the screen indicate which catogory goes with which key. 
 
2) Each word or image has a correct catogory classification 
 
3) Keep your index fingers on the A and L keys to enable a rapid response. 
 
4) The test gives no results if you go slow- please try to go as fast as possible 
",IMERYS_123,2,002,female,2022-05-25_15h13.31.064,openIAT,2020.1.0rc3,Win32,60,,,,,,,,,,,,,,,,,,,,,,,,,,,
,,,,,,,,,,,,,IMERYS_123,2,002,female,2022-05-25_15h13.31.064,openIAT,2020.1.0rc3,Win32,60,,0,-0.403703704,-0.314814815,1,0,0,1.8018,button_left,1.8018,1,0,0,0,6,1,stimuli/blank.png,Love,a,,,,,,,,
,,,,,,,,,,,,,IMERYS_123,2,002,female,2022-05-25_15h13.31.064,openIAT,2020.1.0rc3,Win32,60,,0,-0.403703704,-0.314814815,1,0,0,1.4599,button_left,1.4599,1,0,1,1,4,1,stimuli/blank.png,Pleasure,a,,,,,,,,
,,,,,,,,,,,,,IMERYS_123,2,002,female,2022-05-25_15h13.31.064,openIAT,2020.1.0rc3,Win32,60,,0,0.437037037,-0.302777778,1,0,0,1.7686,button_right,1.7686,1,0,2,2,9,1,stimuli/blank.png,Nasty,l,,,,,,,,
,,,,,,,,,,,,,IMERYS_123,2,002,female,2022-05-25_15h13.31.064,openIAT,2020.1.0rc3,Win32,60,,0,0.437037037,-0.302777778,1,0,0,1.6888,button_right,1.6888,1,0,3,3,7,1,stimuli/blank.png,Evil,l,,,,,,,,
,,,,,,,,,,,,,IMERYS_123,2,002,female,2022-05-25_15h13.31.064,openIAT,2020.1.0rc3,Win32,60,,0,0.437037037,-0.302777778,1,0,0,0.8878,button_right,0.8878,1,0,4,4,1,1,stimuli/blank.png,Bad,l,,,,,,,,
,,,,,,,,,,,,,IMERYS_123,2,002,female,2022-05-25_15h13.31.064,openIAT,2020.1.0rc3,Win32,60,,0,-0.373148148,-0.314814815,1,0,0,1.2414,button_left,1.2414,1,0,5,5,2,1,stimuli/blank.png,Happy,a,,,,,,,,
,,,,,,,,,,,,,IMERYS_123,2,002,female,2022-05-25_15h13.31.064,openIAT,2020.1.0rc3,Win32,60,,0,0.372222222,-0.302777778,1,0,0,3.8924,button_right,3.8924,1,0,6,6,5,1,stimuli/blank.png,Agony,l,,,,,,,,
,,,,,,,,,,,,,IMERYS_123,2,002,female,2022-05-25_15h13.31.064,openIAT,2020.1.0rc3,Win32,60,,0,0.372222222,-0.302777778,1,0,0,1.1801,button_right,1.1801,1,0,7,7,3,1,stimuli/blank.png,Hurt,l,,,,,,,,
,,,,,,,,,,,,,IMERYS_123,2,002,female,2022-05-25_15h13.31.064,openIAT,2020.1.0rc3,Win32,60,,0,-0.437037037,-0.312962963,1,0,0,1.4054,button_left,1.4054,1,0,8,8,0,1,stimuli/blank.png,Good,a,,,,,,,,
,,,,,,,,,,,,,IMERYS_123,2,002,female,2022-05-25_15h13.31.064,openIAT,2020.1.0rc3,Win32,60,,0,-0.437037037,-0.312962963,1,0,0,0.9488,button_left,0.9488,1,0,9,9,8,1,stimuli/blank.png,Joy,a,,,,,,,,
,,,,,,,,,,,,,IMERYS_123,2,002,female,2022-05-25_15h13.31.064,openIAT,2020.1.0rc3,Win32,60,,,,,,,,,,,,,,,,,,,,0,0,0,0,1,pos_neg_train.xlsx,"A = 
Positive","L = 
Negative"
,,,,,,,,,,,,,IMERYS_123,2,002,female,2022-05-25_15h13.31.064,openIAT,2020.1.0rc3,Win32,60,,0,0.413888889,-0.317592593,1,0,0,5.9293,button_right,5.9293,1,0,0,0,3,1,stimuli/white_2.jpg,,l,,,,,,,,
,,,,,,,,,,,,,IMERYS_123,2,002,female,2022-05-25_15h13.31.064,openIAT,2020.1.0rc3,Win32,60,,0,-0.408333333,-0.328703704,1,0,0,1.5206,button_left,1.5206,1,0,1,1,0,1,stimuli/black_1.jpg,,a,,,,,,,,
,,,,,,,,,,,,,IMERYS_123,2,002,female,2022-05-25_15h13.31.064,openIAT,2020.1.0rc3,Win32,60,,0,0.40462963,-0.306481481,1,0,0,1.5724,button_right,1.5724,1,0,2,2,1,1,stimuli/white_1.jpg,,l,,,,,,,,
,,,,,,,,,,,,,IMERYS_123,2,002,female,2022-05-25_15h13.31.064,openIAT,2020.1.0rc3,Win32,60,,0,-0.375925926,-0.313888889,1,0,0,1.4401,button_left,1.4401,1,0,3,3,4,1,stimuli/black_3.jpg,,a,,,,,,,,
,,,,,,,,,,,,,IMERYS_123,2,002,female,2022-05-25_15h13.31.064,openIAT,2020.1.0rc3,Win32,60,,0,-0.375925926,-0.313888889,1,0,0,1.2873,button_left,1.2873,1,0,4,4,2,1,stimuli/black_2.jpg,,a,,,,,,,,
,,,,,,,,,,,,,IMERYS_123,2,002,female,2022-05-25_15h13.31.064,openIAT,2020.1.0rc3,Win32,60,,0,0.402777778,-0.312037037,1,0,0,1.6389,button_right,1.6389,1,0,5,5,7,1,stimuli/white_4.jpg,,l,,,,,,,,
,,,,,,,,,,,,,IMERYS_123,2,002,female,2022-05-25_15h13.31.064,openIAT,2020.1.0rc3,Win32,60,,0,0.405555556,-0.312037037,1,0,0,2.4096,button_right,2.4096,1,0,6,6,9,1,stimuli/white_5.jpg,,l,,,,,,,,
,,,,,,,,,,,,,IMERYS_123,2,002,female,2022-05-25_15h13.31.064,openIAT,2020.1.0rc3,Win32,60,,0,-0.394444444,-0.312037037,1,0,0,1.2276,button_left,1.2276,1,0,7,7,6,1,stimuli/black_4.jpg,,a,,,,,,,,
,,,,,,,,,,,,,IMERYS_123,2,002,female,2022-05-25_15h13.31.064,openIAT,2020.1.0rc3,Win32,60,,0,0.398148148,-0.321296296,1,0,0,1.2121,button_right,1.2121,1,0,8,8,5,1,stimuli/white_3.jpg,,l,,,,,,,,
,,,,,,,,,,,,,IMERYS_123,2,002,female,2022-05-25_15h13.31.064,openIAT,2020.1.0rc3,Win32,60,,0,-0.436111111,-0.317592593,1,0,0,1.3303,button_left,1.3303,1,0,9,9,8,1,stimuli/black_5.jpg,,a,,,,,,,,
,,,,,,,,,,,,,IMERYS_123,2,002,female,2022-05-25_15h13.31.064,openIAT,2020.1.0rc3,Win32,60,,,,,,,,,,,,,,,,,,,,0,1,1,1,1,incong_train.xlsx,"A = 
Black","L = 
White"
,,,,,,,,,,,,,IMERYS_123,2,002,female,2022-05-25_15h13.31.064,openIAT,2020.1.0rc3,Win32,60,,0,-0.413888889,-0.378703704,1,0,0,11.9472,button_left,11.9472,1,0,0,0,12,1,stimuli/blank.png,Happy,a,,,,,,,,
,,,,,,,,,,,,,IMERYS_123,2,002,female,2022-05-25_15h13.31.064,openIAT,2020.1.0rc3,Win32,60,,0,-0.396296296,-0.359259259,1,0,0,3.5862,button_left,3.5862,1,0,1,1,8,1,stimuli/black_5.jpg,,a,,,,,,,,
,,,,,,,,,,,,,IMERYS_123,2,002,female,2022-05-25_15h13.31.064,openIAT,2020.1.0rc3,Win32,60,,0,-0.396296296,-0.359259259,1,0,0,3.3035,button_left,3.3035,1,0,2,2,10,1,stimuli/blank.png,Good,a,,,,,,,,
,,,,,,,,,,,,,IMERYS_123,2,002,female,2022-05-25_15h13.31.064,openIAT,2020.1.0rc3,Win32,60,,0,-0.396296296,-0.359259259,1,0,0,2.3059,button_left,2.3059,1,0,3,3,14,1,stimuli/blank.png,Pleasure,a,,,,,,,,
,,,,,,,,,,,,,IMERYS_123,2,002,female,2022-05-25_15h13.31.064,openIAT,2020.1.0rc3,Win32,60,,0,0.447222222,-0.378703704,1,0,0,2.5778,button_right,2.5778,1,0,4,4,7,1,stimuli/white_4.jpg,,l,,,,,,,,
,,,,,,,,,,,,,IMERYS_123,2,002,female,2022-05-25_15h13.31.064,openIAT,2020.1.0rc3,Win32,60,,0,0.447222222,-0.378703704,1,0,0,1.788,button_right,1.788,1,0,5,5,17,1,stimuli/blank.png,Evil,l,,,,,,,,
,,,,,,,,,,,,,IMERYS_123,2,002,female,2022-05-25_15h13.31.064,openIAT,2020.1.0rc3,Win32,60,,0,0.447222222,-0.378703704,1,0,0,1.6693,button_right,1.6693,1,0,6,6,1,1,stimuli/white_1.jpg,,l,,,,,,,,
,,,,,,,,,,,,,IMERYS_123,2,002,female,2022-05-25_15h13.31.064,openIAT,2020.1.0rc3,Win32,60,,0,-0.438888889,-0.358333333,1,0,0,2.2642,button_left,2.2642,1,0,7,7,6,1,stimuli/black_4.jpg,,a,,,,,,,,
,,,,,,,,,,,,,IMERYS_123,2,002,female,2022-05-25_15h13.31.064,openIAT,2020.1.0rc3,Win32,60,,0,-0.438888889,-0.358333333,1,0,0,1.2056,button_left,1.2056,1,0,8,8,0,1,stimuli/black_1.jpg,,a,,,,,,,,
,,,,,,,,,,,,,IMERYS_123,2,002,female,2022-05-25_15h13.31.064,openIAT,2020.1.0rc3,Win32,60,,0,0.433333333,-0.377777778,1,0,0,1.8779,button_right,1.8779,1,0,9,9,9,1,stimuli/white_5.jpg,,l,,,,,,,,
,,,,,,,,,,,,,IMERYS_123,2,002,female,2022-05-25_15h13.31.064,openIAT,2020.1.0rc3,Win32,60,,0,0.433333333,-0.377777778,1,0,0,1.4389,button_right,1.4389,1,0,10,10,3,1,stimuli/white_2.jpg,,l,,,,,,,,
,,,,,,,,,,,,,IMERYS_123,2,002,female,2022-05-25_15h13.31.064,openIAT,2020.1.0rc3,Win32,60,,0,-0.435185185,-0.316666667,1,0,0,1.1826,button_left,1.1826,1,0,11,11,2,1,stimuli/black_2.jpg,,a,,,,,,,,
,,,,,,,,,,,,,IMERYS_123,2,002,female,2022-05-25_15h13.31.064,openIAT,2020.1.0rc3,Win32,60,,0,-0.42962963,-0.319444444,1,0,0,1.9008,button_left,1.9008,1,0,12,12,18,1,stimuli/blank.png,Joy,a,,,,,,,,
,,,,,,,,,,,,,IMERYS_123,2,002,female,2022-05-25_15h13.31.064,openIAT,2020.1.0rc3,Win32,60,,0,0.396296296,-0.355555556,1,0,0,2.6707,button_right,2.6707,1,0,13,13,19,1,stimuli/blank.png,Nasty,l,,,,,,,,
,,,,,,,,,,,,,IMERYS_123,2,002,female,2022-05-25_15h13.31.064,openIAT,2020.1.0rc3,Win32,60,,0,-0.413888889,-0.337962963,1,0,0,1.865,button_left,1.865,1,0,14,14,16,1,stimuli/blank.png,Love,a,,,,,,,,
,,,,,,,,,,,,,IMERYS_123,2,002,female,2022-05-25_15h13.31.064,openIAT,2020.1.0rc3,Win32,60,,0,0.348148148,-0.347222222,1,0,0,3.0918,button_right,3.0918,1,0,15,15,5,1,stimuli/white_3.jpg,,l,,,,,,,,
,,,,,,,,,,,,,IMERYS_123,2,002,female,2022-05-25_15h13.31.064,openIAT,2020.1.0rc3,Win32,60,,0,0.436111111,-0.336111111,1,0,0,1.7582,button_right,1.7582,1,0,16,16,15,1,stimuli/blank.png,Agony,l,,,,,,,,
,,,,,,,,,,,,,IMERYS_123,2,002,female,2022-05-25_15h13.31.064,openIAT,2020.1.0rc3,Win32,60,,0,-0.434259259,-0.336111111,1,0,0,2.2811,button_left,2.2811,1,0,17,17,4,1,stimuli/black_3.jpg,,a,,,,,,,,
,,,,,,,,,,,,,IMERYS_123,2,002,female,2022-05-25_15h13.31.064,openIAT,2020.1.0rc3,Win32,60,,0,0.357407407,-0.338888889,1,0,0,1.4315,button_right,1.4315,1,0,18,18,13,1,stimuli/blank.png,Hurt,l,,,,,,,,
,,,,,,,,,,,,,IMERYS_123,2,002,female,2022-05-25_15h13.31.064,openIAT,2020.1.0rc3,Win32,60,,0,0.357407407,-0.338888889,1,0,0,1.9556,button_right,1.9556,1,0,19,19,11,1,stimuli/blank.png,Bad,l,,,,,,,,
,,,,,,,,,,,,,IMERYS_123,2,002,female,2022-05-25_15h13.31.064,openIAT,2020.1.0rc3,Win32,60,,,,,,,,,,,,,,,,,,,,0,2,2,2,1,incong_test.xlsx,"A = 
Black or 
Positive","L = 
White or 
Negative"
,,,,,,,,,,,,,IMERYS_123,2,002,female,2022-05-25_15h13.31.064,openIAT,2020.1.0rc3,Win32,60,,0,0.399074074,-0.322222222,1,0,0,2.2404,button_right,2.2404,1,0,0,0,6,1,stimuli/black_4.jpg,NaN,l,,,,,,,,
,,,,,,,,,,,,,IMERYS_123,2,002,female,2022-05-25_15h13.31.064,openIAT,2020.1.0rc3,Win32,60,,0,0.399074074,-0.322222222,1,0,0,1.5786,button_right,1.5786,1,0,1,1,2,1,stimuli/black_2.jpg,NaN,l,,,,,,,,
,,,,,,,,,,,,,IMERYS_123,2,002,female,2022-05-25_15h13.31.064,openIAT,2020.1.0rc3,Win32,60,,0,-0.375925926,-0.318518519,1,0,0,1.2604,button_left,1.2604,1,0,2,2,3,1,stimuli/white_2.jpg,NaN,a,,,,,,,,
,,,,,,,,,,,,,IMERYS_123,2,002,female,2022-05-25_15h13.31.064,openIAT,2020.1.0rc3,Win32,60,,0,0.37037037,-0.301851852,1,0,0,1.2372,button_right,1.2372,1,0,3,3,0,1,stimuli/black_1.jpg,NaN,l,,,,,,,,
,,,,,,,,,,,,,IMERYS_123,2,002,female,2022-05-25_15h13.31.064,openIAT,2020.1.0rc3,Win32,60,,0,0.37037037,-0.301851852,1,0,0,2.2262,button_right,2.2262,1,0,4,4,8,1,stimuli/black_5.jpg,NaN,l,,,,,,,,
,,,,,,,,,,,,,IMERYS_123,2,002,female,2022-05-25_15h13.31.064,openIAT,2020.1.0rc3,Win32,60,,0,-0.400925926,-0.294444444,1,0,0,1.7223,button_left,1.7223,1,0,5,5,1,1,stimuli/white_1.jpg,NaN,a,,,,,,,,
,,,,,,,,,,,,,IMERYS_123,2,002,female,2022-05-25_15h13.31.064,openIAT,2020.1.0rc3,Win32,60,,0,-0.400925926,-0.294444444,1,0,0,1.2796,button_left,1.2796,1,0,6,6,5,1,stimuli/white_3.jpg,NaN,a,,,,,,,,
,,,,,,,,,,,,,IMERYS_123,2,002,female,2022-05-25_15h13.31.064,openIAT,2020.1.0rc3,Win32,60,,0,0.34537037,-0.327777778,1,0,0,1.0428,button_right,1.0428,1,0,7,7,4,1,stimuli/black_3.jpg,NaN,l,,,,,,,,
,,,,,,,,,,,,,IMERYS_123,2,002,female,2022-05-25_15h13.31.064,openIAT,2020.1.0rc3,Win32,60,,0,-0.387037037,-0.311111111,1,0,0,1.1827,button_left,1.1827,1,0,8,8,7,1,stimuli/white_4.jpg,NaN,a,,,,,,,,
,,,,,,,,,,,,,IMERYS_123,2,002,female,2022-05-25_15h13.31.064,openIAT,2020.1.0rc3,Win32,60,,0,-0.387037037,-0.311111111,1,0,0,0.9312,button_left,0.9312,1,0,9,9,9,1,stimuli/white_5.jpg,NaN,a,,,,,,,,
,,,,,,,,,,,,,IMERYS_123,2,002,female,2022-05-25_15h13.31.064,openIAT,2020.1.0rc3,Win32,60,,,,,,,,,,,,,,,,,,,,0,3,3,3,1,cong_train.xlsx,"A = 
White","L = 
Black"
,,,,,,,,,,,,,IMERYS_123,2,002,female,2022-05-25_15h13.31.064,openIAT,2020.1.0rc3,Win32,60,,0,-0.403703704,-0.338888889,1,0,0,1.7055,button_left,1.7055,1,0,0,0,10,1,stimuli/blank.png,Good,a,,,,,,,,
,,,,,,,,,,,,,IMERYS_123,2,002,female,2022-05-25_15h13.31.064,openIAT,2020.1.0rc3,Win32,60,,0,-0.403703704,-0.338888889,1,0,0,1.2955,button_left,1.2955,1,0,1,1,18,1,stimuli/blank.png,Joy,a,,,,,,,,
,,,,,,,,,,,,,IMERYS_123,2,002,female,2022-05-25_15h13.31.064,openIAT,2020.1.0rc3,Win32,60,,0,0.424074074,-0.361111111,1,0,0,11.086,button_right,11.086,1,0,2,2,8,1,stimuli/black_5.jpg,NaN,l,,,,,,,,
,,,,,,,,,,,,,IMERYS_123,2,002,female,2022-05-25_15h13.31.064,openIAT,2020.1.0rc3,Win32,60,,0,0.424074074,-0.361111111,1,0,0,1.1378,button_right,1.1378,1,0,3,3,17,1,stimuli/blank.png,Evil,l,,,,,,,,
,,,,,,,,,,,,,IMERYS_123,2,002,female,2022-05-25_15h13.31.064,openIAT,2020.1.0rc3,Win32,60,,0,0.424074074,-0.361111111,1,0,0,1.0581,button_right,1.0581,1,0,4,4,15,1,stimuli/blank.png,Agony,l,,,,,,,,
,,,,,,,,,,,,,IMERYS_123,2,002,female,2022-05-25_15h13.31.064,openIAT,2020.1.0rc3,Win32,60,,0,0.424074074,-0.361111111,1,0,0,1.5801,button_right,1.5801,1,0,5,5,2,1,stimuli/black_2.jpg,NaN,l,,,,,,,,
,,,,,,,,,,,,,IMERYS_123,2,002,female,2022-05-25_15h13.31.064,openIAT,2020.1.0rc3,Win32,60,,0,-0.45462963,-0.34537037,1,0,0,1.1731,button_left,1.1731,1,0,6,6,16,1,stimuli/blank.png,Love,a,,,,,,,,
,,,,,,,,,,,,,IMERYS_123,2,002,female,2022-05-25_15h13.31.064,openIAT,2020.1.0rc3,Win32,60,,0,0.406481481,-0.343518519,1,0,0,1.449,button_right,1.449,1,0,7,7,13,1,stimuli/blank.png,Hurt,l,,,,,,,,
,,,,,,,,,,,,,IMERYS_123,2,002,female,2022-05-25_15h13.31.064,openIAT,2020.1.0rc3,Win32,60,,0,0.44537037,-0.328703704,1,0,0,2.5356,button_right,2.5356,1,0,8,8,0,1,stimuli/black_1.jpg,NaN,l,,,,,,,,
,,,,,,,,,,,,,IMERYS_123,2,002,female,2022-05-25_15h13.31.064,openIAT,2020.1.0rc3,Win32,60,,0,-0.412037037,-0.327777778,1,0,0,1.4124,button_left,1.4124,1,0,9,9,7,1,stimuli/white_4.jpg,NaN,a,,,,,,,,
,,,,,,,,,,,,,IMERYS_123,2,002,female,2022-05-25_15h13.31.064,openIAT,2020.1.0rc3,Win32,60,,0,-0.412037037,-0.327777778,1,0,0,1.1282,button_left,1.1282,1,0,10,10,12,1,stimuli/blank.png,Happy,a,,,,,,,,
,,,,,,,,,,,,,IMERYS_123,2,002,female,2022-05-25_15h13.31.064,openIAT,2020.1.0rc3,Win32,60,,0,0.397222222,-0.309259259,1,0,0,2.2015,button_right,2.2015,1,0,11,11,4,1,stimuli/black_3.jpg,NaN,l,,,,,,,,
,,,,,,,,,,,,,IMERYS_123,2,002,female,2022-05-25_15h13.31.064,openIAT,2020.1.0rc3,Win32,60,,0,-0.421296296,-0.312962963,1,0,0,2.4619,button_left,2.4619,1,0,12,12,9,1,stimuli/white_5.jpg,NaN,a,,,,,,,,
,,,,,,,,,,,,,IMERYS_123,2,002,female,2022-05-25_15h13.31.064,openIAT,2020.1.0rc3,Win32,60,,0,-0.421296296,-0.312962963,1,0,0,1.2851,button_left,1.2851,1,0,13,13,3,1,stimuli/white_2.jpg,NaN,a,,,,,,,,
,,,,,,,,,,,,,IMERYS_123,2,002,female,2022-05-25_15h13.31.064,openIAT,2020.1.0rc3,Win32,60,,0,0.402777778,-0.309259259,1,0,0,5.9763,button_right,5.9763,1,0,14,14,19,1,stimuli/blank.png,Nasty,l,,,,,,,,
,,,,,,,,,,,,,IMERYS_123,2,002,female,2022-05-25_15h13.31.064,openIAT,2020.1.0rc3,Win32,60,,0,0.402777778,-0.309259259,1,0,0,1.3046,button_right,1.3046,1,0,15,15,11,1,stimuli/blank.png,Bad,l,,,,,,,,
,,,,,,,,,,,,,IMERYS_123,2,002,female,2022-05-25_15h13.31.064,openIAT,2020.1.0rc3,Win32,60,,0,0.402777778,-0.309259259,1,0,0,1.3461,button_right,1.3461,1,0,16,16,6,1,stimuli/black_4.jpg,NaN,l,,,,,,,,
,,,,,,,,,,,,,IMERYS_123,2,002,female,2022-05-25_15h13.31.064,openIAT,2020.1.0rc3,Win32,60,,0,-0.443518519,-0.311111111,1,0,0,1.4903,button_left,1.4903,1,0,17,17,5,1,stimuli/white_3.jpg,NaN,a,,,,,,,,
,,,,,,,,,,,,,IMERYS_123,2,002,female,2022-05-25_15h13.31.064,openIAT,2020.1.0rc3,Win32,60,,0,-0.443518519,-0.311111111,1,0,0,2.2215,button_left,2.2215,1,0,18,18,14,1,stimuli/blank.png,Pleasure,a,,,,,,,,
,,,,,,,,,,,,,IMERYS_123,2,002,female,2022-05-25_15h13.31.064,openIAT,2020.1.0rc3,Win32,60,,0,-0.443518519,-0.311111111,1,0,0,1.205,button_left,1.205,1,0,19,19,1,1,stimuli/white_1.jpg,NaN,a,,,,,,,,
