instr_done_touch.x,instr_done_touch.y,instr_done_touch.leftButton,instr_done_touch.midButton,instr_done_touch.rightButton,instr_done_touch.clicked_name,instruct_pages.thisRepN,instruct_pages.thisTrialN,instruct_pages.thisN,instruct_pages.thisIndex,instruct_pages.ran,pageN,instruct_text,participant,order,session,gender,date,expName,psychopyVersion,OS,frameRate,key_resp.keys,key_resp.corr,key_resp.rt,touch_resp.x,touch_resp.y,touch_resp.leftButton,touch_resp.midButton,touch_resp.rightButton,touch_resp.time,touch_resp.clicked_name,rt,corr,trials.thisRepN,trials.thisTrialN,trials.thisN,trials.thisIndex,trials.ran,stimImage,stimWord,CorrAns,blocks.thisRepN,blocks.thisTrialN,blocks.thisN,blocks.thisIndex,blocks.ran,conds_file,label_left,label_right
-0.024739583,-0.39453125,1,0,0,instr_done_button,0,0,0,0,1,1,"You will be presented with words or images to classify into categories using either the 'A' or 'L' key. 
 
Try to go as fast as possible while making as few mistakes as possible. 
",jack,2,001,male,2024-05-28_07h36.46.126,openIAT,2020.1.0rc3,Win32,60,,,,,,,,,,,,,,,,,,,,,,,,,,,,
-0.024739583,-0.39453125,1,0,0,instr_done_button,0,1,1,1,1,2,"Keep in mind: 
 
1) Labels at the top of the screen indicate which catogory goes with which key. 
 
2) Each word or image has a correct catogory classification 
 
3) Keep your index fingers on the A and L keys to enable a rapid response. 
 
4) The test gives no results if you go slow- please try to go as fast as possible 
",jack,2,001,male,2024-05-28_07h36.46.126,openIAT,2020.1.0rc3,Win32,60,,,,,,,,,,,,,,,,,,,,,,,,,,,,
,,,,,,,,,,,,,jack,2,001,male,2024-05-28_07h36.46.126,openIAT,2020.1.0rc3,Win32,60,a,0,0.8191,,,,,,,,0.8191,0,0,0,0,1,1,stimuli/blank.png,Bad,l,,,,,,,,
,,,,,,,,,,,,,jack,2,001,male,2024-05-28_07h36.46.126,openIAT,2020.1.0rc3,Win32,60,l,0,0.0011,,,,,,,,0.0011,0,0,1,1,2,1,stimuli/blank.png,Happy,a,,,,,,,,
,,,,,,,,,,,,,jack,2,001,male,2024-05-28_07h36.46.126,openIAT,2020.1.0rc3,Win32,60,l,0,1.0399,,,,,,,,1.0399,0,0,2,2,4,1,stimuli/blank.png,Pleasure,a,,,,,,,,
,,,,,,,,,,,,,jack,2,001,male,2024-05-28_07h36.46.126,openIAT,2020.1.0rc3,Win32,60,l,0,1.9335,,,,,,,,1.9335,0,0,3,3,6,1,stimuli/blank.png,Love,a,,,,,,,,
,,,,,,,,,,,,,jack,2,001,male,2024-05-28_07h36.46.126,openIAT,2020.1.0rc3,Win32,60,a,1,0.6007,,,,,,,,0.6007,1,0,4,4,0,1,stimuli/blank.png,Good,a,,,,,,,,
,,,,,,,,,,,,,jack,2,001,male,2024-05-28_07h36.46.126,openIAT,2020.1.0rc3,Win32,60,l,1,0.8,,,,,,,,0.8,1,0,5,5,7,1,stimuli/blank.png,Evil,l,,,,,,,,
,,,,,,,,,,,,,jack,2,001,male,2024-05-28_07h36.46.126,openIAT,2020.1.0rc3,Win32,60,a,0,0.637,,,,,,,,0.637,0,0,6,6,3,1,stimuli/blank.png,Hurt,l,,,,,,,,
,,,,,,,,,,,,,jack,2,001,male,2024-05-28_07h36.46.126,openIAT,2020.1.0rc3,Win32,60,l,1,0.9683,,,,,,,,0.9683,1,0,7,7,5,1,stimuli/blank.png,Agony,l,,,,,,,,
,,,,,,,,,,,,,jack,2,001,male,2024-05-28_07h36.46.126,openIAT,2020.1.0rc3,Win32,60,a,0,0.7468,,,,,,,,0.7468,0,0,8,8,9,1,stimuli/blank.png,Nasty,l,,,,,,,,
,,,,,,,,,,,,,jack,2,001,male,2024-05-28_07h36.46.126,openIAT,2020.1.0rc3,Win32,60,a,1,0.9542,,,,,,,,0.9542,1,0,9,9,8,1,stimuli/blank.png,Joy,a,,,,,,,,
,,,,,,,,,,,,,jack,2,001,male,2024-05-28_07h36.46.126,openIAT,2020.1.0rc3,Win32,60,,,,,,,,,,,,,,,,,,,,,0,0,0,0,1,pos_neg_train.xlsx,"A = 
Positive","L = 
Negative"
,,,,,,,,,,,,,jack,2,001,male,2024-05-28_07h36.46.126,openIAT,2020.1.0rc3,Win32,60,a,0,2.626,,,,,,,,2.626,0,0,0,0,9,1,stimuli/white_5.jpg,,l,,,,,,,,
,,,,,,,,,,,,,jack,2,001,male,2024-05-28_07h36.46.126,openIAT,2020.1.0rc3,Win32,60,l,0,0.9282,,,,,,,,0.9282,0,0,1,1,2,1,stimuli/black_2.jpg,,a,,,,,,,,
,,,,,,,,,,,,,jack,2,001,male,2024-05-28_07h36.46.126,openIAT,2020.1.0rc3,Win32,60,a,1,1.5332,,,,,,,,1.5332,1,0,2,2,6,1,stimuli/black_4.jpg,,a,,,,,,,,
,,,,,,,,,,,,,jack,2,001,male,2024-05-28_07h36.46.126,openIAT,2020.1.0rc3,Win32,60,l,1,0.7433,,,,,,,,0.7433,1,0,3,3,7,1,stimuli/white_4.jpg,,l,,,,,,,,
,,,,,,,,,,,,,jack,2,001,male,2024-05-28_07h36.46.126,openIAT,2020.1.0rc3,Win32,60,a,1,1.2485,,,,,,,,1.2485,1,0,4,4,0,1,stimuli/black_1.jpg,,a,,,,,,,,
,,,,,,,,,,,,,jack,2,001,male,2024-05-28_07h36.46.126,openIAT,2020.1.0rc3,Win32,60,l,1,0.8246,,,,,,,,0.8246,1,0,5,5,1,1,stimuli/white_1.jpg,,l,,,,,,,,
,,,,,,,,,,,,,jack,2,001,male,2024-05-28_07h36.46.126,openIAT,2020.1.0rc3,Win32,60,a,1,0.8276,,,,,,,,0.8276,1,0,6,6,4,1,stimuli/black_3.jpg,,a,,,,,,,,
,,,,,,,,,,,,,jack,2,001,male,2024-05-28_07h36.46.126,openIAT,2020.1.0rc3,Win32,60,l,1,0.9711,,,,,,,,0.9711,1,0,7,7,3,1,stimuli/white_2.jpg,,l,,,,,,,,
,,,,,,,,,,,,,jack,2,001,male,2024-05-28_07h36.46.126,openIAT,2020.1.0rc3,Win32,60,a,1,0.6833,,,,,,,,0.6833,1,0,8,8,8,1,stimuli/black_5.jpg,,a,,,,,,,,
,,,,,,,,,,,,,jack,2,001,male,2024-05-28_07h36.46.126,openIAT,2020.1.0rc3,Win32,60,l,1,0.6307,,,,,,,,0.6307,1,0,9,9,5,1,stimuli/white_3.jpg,,l,,,,,,,,
,,,,,,,,,,,,,jack,2,001,male,2024-05-28_07h36.46.126,openIAT,2020.1.0rc3,Win32,60,,,,,,,,,,,,,,,,,,,,,0,1,1,1,1,incong_train.xlsx,"A = 
Black","L = 
White"
,,,,,,,,,,,,,jack,2,001,male,2024-05-28_07h36.46.126,openIAT,2020.1.0rc3,Win32,60,l,0,3.6601,,,,,,,,3.6601,0,0,0,0,14,1,stimuli/blank.png,Pleasure,a,,,,,,,,
,,,,,,,,,,,,,jack,2,001,male,2024-05-28_07h36.46.126,openIAT,2020.1.0rc3,Win32,60,a,0,1.9996,,,,,,,,1.9996,0,0,1,1,13,1,stimuli/blank.png,Hurt,l,,,,,,,,
,,,,,,,,,,,,,jack,2,001,male,2024-05-28_07h36.46.126,openIAT,2020.1.0rc3,Win32,60,l,1,1.5472,,,,,,,,1.5472,1,0,2,2,3,1,stimuli/white_2.jpg,,l,,,,,,,,
,,,,,,,,,,,,,jack,2,001,male,2024-05-28_07h36.46.126,openIAT,2020.1.0rc3,Win32,60,a,0,0.9612,,,,,,,,0.9612,0,0,3,3,15,1,stimuli/blank.png,Agony,l,,,,,,,,
,,,,,,,,,,,,,jack,2,001,male,2024-05-28_07h36.46.126,openIAT,2020.1.0rc3,Win32,60,l,1,1.379,,,,,,,,1.379,1,0,4,4,9,1,stimuli/white_5.jpg,,l,,,,,,,,
,,,,,,,,,,,,,jack,2,001,male,2024-05-28_07h36.46.126,openIAT,2020.1.0rc3,Win32,60,a,1,0.6947,,,,,,,,0.6947,1,0,5,5,4,1,stimuli/black_3.jpg,,a,,,,,,,,
,,,,,,,,,,,,,jack,2,001,male,2024-05-28_07h36.46.126,openIAT,2020.1.0rc3,Win32,60,l,0,3.7764,,,,,,,,3.7764,0,0,6,6,12,1,stimuli/blank.png,Happy,a,,,,,,,,
,,,,,,,,,,,,,jack,2,001,male,2024-05-28_07h36.46.126,openIAT,2020.1.0rc3,Win32,60,a,0,0.894,,,,,,,,0.894,0,0,7,7,17,1,stimuli/blank.png,Evil,l,,,,,,,,
,,,,,,,,,,,,,jack,2,001,male,2024-05-28_07h36.46.126,openIAT,2020.1.0rc3,Win32,60,a,1,0.7433,,,,,,,,0.7433,1,0,8,8,8,1,stimuli/black_5.jpg,,a,,,,,,,,
,,,,,,,,,,,,,jack,2,001,male,2024-05-28_07h36.46.126,openIAT,2020.1.0rc3,Win32,60,a,0,0.8135,,,,,,,,0.8135,0,0,9,9,1,1,stimuli/white_1.jpg,,l,,,,,,,,
,,,,,,,,,,,,,jack,2,001,male,2024-05-28_07h36.46.126,openIAT,2020.1.0rc3,Win32,60,l,1,0.5192,,,,,,,,0.5192,1,0,10,10,5,1,stimuli/white_3.jpg,,l,,,,,,,,
,,,,,,,,,,,,,jack,2,001,male,2024-05-28_07h36.46.126,openIAT,2020.1.0rc3,Win32,60,l,0,1.0311,,,,,,,,1.0311,0,0,11,11,18,1,stimuli/blank.png,Joy,a,,,,,,,,
,,,,,,,,,,,,,jack,2,001,male,2024-05-28_07h36.46.126,openIAT,2020.1.0rc3,Win32,60,a,1,0.6704,,,,,,,,0.6704,1,0,12,12,6,1,stimuli/black_4.jpg,,a,,,,,,,,
,,,,,,,,,,,,,jack,2,001,male,2024-05-28_07h36.46.126,openIAT,2020.1.0rc3,Win32,60,l,1,1.3186,,,,,,,,1.3186,1,0,13,13,19,1,stimuli/blank.png,Nasty,l,,,,,,,,
,,,,,,,,,,,,,jack,2,001,male,2024-05-28_07h36.46.126,openIAT,2020.1.0rc3,Win32,60,a,0,2.1337,,,,,,,,2.1337,0,0,14,14,7,1,stimuli/white_4.jpg,,l,,,,,,,,
,,,,,,,,,,,,,jack,2,001,male,2024-05-28_07h36.46.126,openIAT,2020.1.0rc3,Win32,60,a,0,1.1004,,,,,,,,1.1004,0,0,15,15,11,1,stimuli/blank.png,Bad,l,,,,,,,,
,,,,,,,,,,,,,jack,2,001,male,2024-05-28_07h36.46.126,openIAT,2020.1.0rc3,Win32,60,l,0,0.8489,,,,,,,,0.8489,0,0,16,16,10,1,stimuli/blank.png,Good,a,,,,,,,,
,,,,,,,,,,,,,jack,2,001,male,2024-05-28_07h36.46.126,openIAT,2020.1.0rc3,Win32,60,a,1,0.8674,,,,,,,,0.8674,1,0,17,17,2,1,stimuli/black_2.jpg,,a,,,,,,,,
,,,,,,,,,,,,,jack,2,001,male,2024-05-28_07h36.46.126,openIAT,2020.1.0rc3,Win32,60,l,0,1.2284,,,,,,,,1.2284,0,0,18,18,16,1,stimuli/blank.png,Love,a,,,,,,,,
,,,,,,,,,,,,,jack,2,001,male,2024-05-28_07h36.46.126,openIAT,2020.1.0rc3,Win32,60,a,1,0.7036,,,,,,,,0.7036,1,0,19,19,0,1,stimuli/black_1.jpg,,a,,,,,,,,
,,,,,,,,,,,,,jack,2,001,male,2024-05-28_07h36.46.126,openIAT,2020.1.0rc3,Win32,60,,,,,,,,,,,,,,,,,,,,,0,2,2,2,1,incong_test.xlsx,"A = 
Black or 
Positive","L = 
White or 
Negative"
,,,,,,,,,,,,,jack,2,001,male,2024-05-28_07h36.46.126,openIAT,2020.1.0rc3,Win32,60,a,0,1.0325,,,,,,,,1.0325,0,0,0,0,2,1,stimuli/black_2.jpg,NaN,l,,,,,,,,
,,,,,,,,,,,,,jack,2,001,male,2024-05-28_07h36.46.126,openIAT,2020.1.0rc3,Win32,60,l,1,0.2827,,,,,,,,0.2827,1,0,1,1,8,1,stimuli/black_5.jpg,NaN,l,,,,,,,,
,,,,,,,,,,,,,jack,2,001,male,2024-05-28_07h36.46.126,openIAT,2020.1.0rc3,Win32,60,a,0,0.3619,,,,,,,,0.3619,0,0,2,2,4,1,stimuli/black_3.jpg,NaN,l,,,,,,,,
,,,,,,,,,,,,,jack,2,001,male,2024-05-28_07h36.46.126,openIAT,2020.1.0rc3,Win32,60,l,1,0.3497,,,,,,,,0.3497,1,0,3,3,0,1,stimuli/black_1.jpg,NaN,l,,,,,,,,
,,,,,,,,,,,,,jack,2,001,male,2024-05-28_07h36.46.126,openIAT,2020.1.0rc3,Win32,60,a,0,0.2828,,,,,,,,0.2828,0,0,4,4,6,1,stimuli/black_4.jpg,NaN,l,,,,,,,,
,,,,,,,,,,,,,jack,2,001,male,2024-05-28_07h36.46.126,openIAT,2020.1.0rc3,Win32,60,l,0,0.321,,,,,,,,0.321,0,0,5,5,9,1,stimuli/white_5.jpg,NaN,a,,,,,,,,
,,,,,,,,,,,,,jack,2,001,male,2024-05-28_07h36.46.126,openIAT,2020.1.0rc3,Win32,60,a,1,0.3043,,,,,,,,0.3043,1,0,6,6,7,1,stimuli/white_4.jpg,NaN,a,,,,,,,,
,,,,,,,,,,,,,jack,2,001,male,2024-05-28_07h36.46.126,openIAT,2020.1.0rc3,Win32,60,l,0,0.3339,,,,,,,,0.3339,0,0,7,7,1,1,stimuli/white_1.jpg,NaN,a,,,,,,,,
,,,,,,,,,,,,,jack,2,001,male,2024-05-28_07h36.46.126,openIAT,2020.1.0rc3,Win32,60,l,0,0.2787,,,,,,,,0.2787,0,0,8,8,3,1,stimuli/white_2.jpg,NaN,a,,,,,,,,
,,,,,,,,,,,,,jack,2,001,male,2024-05-28_07h36.46.126,openIAT,2020.1.0rc3,Win32,60,a,1,0.3273,,,,,,,,0.3273,1,0,9,9,5,1,stimuli/white_3.jpg,NaN,a,,,,,,,,
,,,,,,,,,,,,,jack,2,001,male,2024-05-28_07h36.46.126,openIAT,2020.1.0rc3,Win32,60,,,,,,,,,,,,,,,,,,,,,0,3,3,3,1,cong_train.xlsx,"A = 
White","L = 
Black"
,,,,,,,,,,,,,jack,2,001,male,2024-05-28_07h36.46.126,openIAT,2020.1.0rc3,Win32,60,l,0,1.0166,,,,,,,,1.0166,0,0,0,0,14,1,stimuli/blank.png,Pleasure,a,,,,,,,,
,,,,,,,,,,,,,jack,2,001,male,2024-05-28_07h36.46.126,openIAT,2020.1.0rc3,Win32,60,a,0,0.1462,,,,,,,,0.1462,0,0,1,1,4,1,stimuli/black_3.jpg,NaN,l,,,,,,,,
,,,,,,,,,,,,,jack,2,001,male,2024-05-28_07h36.46.126,openIAT,2020.1.0rc3,Win32,60,l,1,0.1107,,,,,,,,0.1107,1,0,2,2,2,1,stimuli/black_2.jpg,NaN,l,,,,,,,,
,,,,,,,,,,,,,jack,2,001,male,2024-05-28_07h36.46.126,openIAT,2020.1.0rc3,Win32,60,a,0,0.3372,,,,,,,,0.3372,0,0,3,3,15,1,stimuli/blank.png,Agony,l,,,,,,,,
,,,,,,,,,,,,,jack,2,001,male,2024-05-28_07h36.46.126,openIAT,2020.1.0rc3,Win32,60,a,1,0.3307,,,,,,,,0.3307,1,0,4,4,5,1,stimuli/white_3.jpg,NaN,a,,,,,,,,
,,,,,,,,,,,,,jack,2,001,male,2024-05-28_07h36.46.126,openIAT,2020.1.0rc3,Win32,60,l,1,0.4189,,,,,,,,0.4189,1,0,5,5,11,1,stimuli/blank.png,Bad,l,,,,,,,,
,,,,,,,,,,,,,jack,2,001,male,2024-05-28_07h36.46.126,openIAT,2020.1.0rc3,Win32,60,l,0,0.3303,,,,,,,,0.3303,0,0,6,6,9,1,stimuli/white_5.jpg,NaN,a,,,,,,,,
,,,,,,,,,,,,,jack,2,001,male,2024-05-28_07h36.46.126,openIAT,2020.1.0rc3,Win32,60,l,1,0.2707,,,,,,,,0.2707,1,0,7,7,8,1,stimuli/black_5.jpg,NaN,l,,,,,,,,
,,,,,,,,,,,,,jack,2,001,male,2024-05-28_07h36.46.126,openIAT,2020.1.0rc3,Win32,60,a,0,0.343,,,,,,,,0.343,0,0,8,8,17,1,stimuli/blank.png,Evil,l,,,,,,,,
,,,,,,,,,,,,,jack,2,001,male,2024-05-28_07h36.46.126,openIAT,2020.1.0rc3,Win32,60,l,1,0.2604,,,,,,,,0.2604,1,0,9,9,19,1,stimuli/blank.png,Nasty,l,,,,,,,,
,,,,,,,,,,,,,jack,2,001,male,2024-05-28_07h36.46.126,openIAT,2020.1.0rc3,Win32,60,a,1,0.2932,,,,,,,,0.2932,1,0,10,10,16,1,stimuli/blank.png,Love,a,,,,,,,,
,,,,,,,,,,,,,jack,2,001,male,2024-05-28_07h36.46.126,openIAT,2020.1.0rc3,Win32,60,l,1,0.2976,,,,,,,,0.2976,1,0,11,11,6,1,stimuli/black_4.jpg,NaN,l,,,,,,,,
,,,,,,,,,,,,,jack,2,001,male,2024-05-28_07h36.46.126,openIAT,2020.1.0rc3,Win32,60,a,0,0.261,,,,,,,,0.261,0,0,12,12,0,1,stimuli/black_1.jpg,NaN,l,,,,,,,,
,,,,,,,,,,,,,jack,2,001,male,2024-05-28_07h36.46.126,openIAT,2020.1.0rc3,Win32,60,a,1,0.3473,,,,,,,,0.3473,1,0,13,13,3,1,stimuli/white_2.jpg,NaN,a,,,,,,,,
,,,,,,,,,,,,,jack,2,001,male,2024-05-28_07h36.46.126,openIAT,2020.1.0rc3,Win32,60,l,0,0.3181,,,,,,,,0.3181,0,0,14,14,1,1,stimuli/white_1.jpg,NaN,a,,,,,,,,
,,,,,,,,,,,,,jack,2,001,male,2024-05-28_07h36.46.126,openIAT,2020.1.0rc3,Win32,60,l,0,0.3159,,,,,,,,0.3159,0,0,15,15,10,1,stimuli/blank.png,Good,a,,,,,,,,
,,,,,,,,,,,,,jack,2,001,male,2024-05-28_07h36.46.126,openIAT,2020.1.0rc3,Win32,60,a,1,0.4509,,,,,,,,0.4509,1,0,16,16,18,1,stimuli/blank.png,Joy,a,,,,,,,,
,,,,,,,,,,,,,jack,2,001,male,2024-05-28_07h36.46.126,openIAT,2020.1.0rc3,Win32,60,l,0,0.3324,,,,,,,,0.3324,0,0,17,17,12,1,stimuli/blank.png,Happy,a,,,,,,,,
,,,,,,,,,,,,,jack,2,001,male,2024-05-28_07h36.46.126,openIAT,2020.1.0rc3,Win32,60,a,1,0.3776,,,,,,,,0.3776,1,0,18,18,7,1,stimuli/white_4.jpg,NaN,a,,,,,,,,
,,,,,,,,,,,,,jack,2,001,male,2024-05-28_07h36.46.126,openIAT,2020.1.0rc3,Win32,60,l,1,0.0359,,,,,,,,0.0359,1,0,19,19,13,1,stimuli/blank.png,Hurt,l,,,,,,,,
