instr_done_touch.x,instr_done_touch.y,instr_done_touch.leftButton,instr_done_touch.midButton,instr_done_touch.rightButton,instr_done_touch.clicked_name,instruct_pages.thisRepN,instruct_pages.thisTrialN,instruct_pages.thisN,instruct_pages.thisIndex,instruct_pages.ran,pageN,instruct_text,participant,order,session,gender,date,expName,psychopyVersion,OS,frameRate,key_resp.keys,key_resp.corr,touch_resp.x,touch_resp.y,touch_resp.leftButton,touch_resp.midButton,touch_resp.rightButton,touch_resp.time,touch_resp.clicked_name,rt,corr,trials.thisRepN,trials.thisTrialN,trials.thisN,trials.thisIndex,trials.ran,stimImage,stimWord,CorrAns,blocks.thisRepN,blocks.thisTrialN,blocks.thisN,blocks.thisIndex,blocks.ran,conds_file,label_left,label_right
0.05,-0.360204082,1,0,0,instr_done_button,0,0,0,0,1,1,"You will be presented with words or images to classify into categories using either the 'A' or 'L' key. 
 
Try to go as fast as possible while making as few mistakes as possible. 
",Jj,1,001,male,2024-03-26_10h50.27.385,openIAT,2020.1.0rc3,iPhone,60,,,,,,,,,,,,,,,,,,,,,,,,,,,
0.054081633,-0.390816327,1,0,0,instr_done_button,0,1,1,1,1,2,"Keep in mind: 
 
1) Labels at the top of the screen indicate which catogory goes with which key. 
 
2) Each word or image has a correct catogory classification 
 
3) Keep your index fingers on the A and L keys to enable a rapid response. 
 
4) The test gives no results if you go slow- please try to go as fast as possible 
",Jj,1,001,male,2024-03-26_10h50.27.385,openIAT,2020.1.0rc3,iPhone,60,,,,,,,,,,,,,,,,,,,,,,,,,,,
,,,,,,,,,,,,,Jj,1,001,male,2024-03-26_10h50.27.385,openIAT,2020.1.0rc3,iPhone,60,,0,0.369387755,-0.279591837,1,0,0,1.07,button_right,1.07,1,0,0,0,7,1,stimuli/blank.png,Evil,l,,,,,,,,
,,,,,,,,,,,,,Jj,1,001,male,2024-03-26_10h50.27.385,openIAT,2020.1.0rc3,iPhone,60,,0,0.385714286,-0.339795918,1,0,0,0.988,button_right,0.988,1,0,1,1,3,1,stimuli/blank.png,Hurt,l,,,,,,,,
,,,,,,,,,,,,,Jj,1,001,male,2024-03-26_10h50.27.385,openIAT,2020.1.0rc3,iPhone,60,,0,-0.242857143,-0.323469388,1,0,0,0.854,button_left,0.854,1,0,2,2,4,1,stimuli/blank.png,Pleasure,a,,,,,,,,
,,,,,,,,,,,,,Jj,1,001,male,2024-03-26_10h50.27.385,openIAT,2020.1.0rc3,iPhone,60,,0,0.312244898,-0.293877551,1,0,0,0.887,button_right,0.887,1,0,3,3,1,1,stimuli/blank.png,Bad,l,,,,,,,,
,,,,,,,,,,,,,Jj,1,001,male,2024-03-26_10h50.27.385,openIAT,2020.1.0rc3,iPhone,60,,0,-0.366326531,-0.319387755,1,0,0,0.754,button_left,0.754,1,0,4,4,0,1,stimuli/blank.png,Good,a,,,,,,,,
,,,,,,,,,,,,,Jj,1,001,male,2024-03-26_10h50.27.385,openIAT,2020.1.0rc3,iPhone,60,,0,-0.282653061,-0.309183673,1,0,0,0.921,button_left,0.921,1,0,5,5,8,1,stimuli/blank.png,Joy,a,,,,,,,,
,,,,,,,,,,,,,Jj,1,001,male,2024-03-26_10h50.27.385,openIAT,2020.1.0rc3,iPhone,60,,0,-0.291836735,-0.346938776,1,0,0,1.522,button_left,1.522,0,0,6,6,5,1,stimuli/blank.png,Agony,l,,,,,,,,
,,,,,,,,,,,,,Jj,1,001,male,2024-03-26_10h50.27.385,openIAT,2020.1.0rc3,iPhone,60,,0,-0.323469388,-0.357142857,1,0,0,0.887,button_left,0.887,1,0,7,7,6,1,stimuli/blank.png,Love,a,,,,,,,,
,,,,,,,,,,,,,Jj,1,001,male,2024-03-26_10h50.27.385,openIAT,2020.1.0rc3,iPhone,60,,0,-0.263265306,-0.325510204,1,0,0,0.956,button_left,0.956,1,0,8,8,2,1,stimuli/blank.png,Happy,a,,,,,,,,
,,,,,,,,,,,,,Jj,1,001,male,2024-03-26_10h50.27.385,openIAT,2020.1.0rc3,iPhone,60,,0,0.341836735,-0.3,1,0,0,0.653,button_right,0.653,1,0,9,9,9,1,stimuli/blank.png,Nasty,l,,,,,,,,
,,,,,,,,,,,,,Jj,1,001,male,2024-03-26_10h50.27.385,openIAT,2020.1.0rc3,iPhone,60,,,,,,,,,,,,,,,,,,,,0,0,0,0,1,pos_neg_train.xlsx,"A = 
Positive","L = 
Negative"
,,,,,,,,,,,,,Jj,1,001,male,2024-03-26_10h50.27.385,openIAT,2020.1.0rc3,iPhone,60,,0,0.344897959,-0.302040816,1,0,0,1.938,button_right,1.938,1,0,0,0,6,1,stimuli/black_4.jpg,NaN,l,,,,,,,,
,,,,,,,,,,,,,Jj,1,001,male,2024-03-26_10h50.27.385,openIAT,2020.1.0rc3,iPhone,60,,0,0.347959184,-0.360204082,1,0,0,0.821,button_right,0.821,1,0,1,1,8,1,stimuli/black_5.jpg,NaN,l,,,,,,,,
,,,,,,,,,,,,,Jj,1,001,male,2024-03-26_10h50.27.385,openIAT,2020.1.0rc3,iPhone,60,,0,0.313265306,-0.321428571,1,0,0,1.056,button_right,1.056,0,0,2,2,7,1,stimuli/white_4.jpg,NaN,a,,,,,,,,
,,,,,,,,,,,,,Jj,1,001,male,2024-03-26_10h50.27.385,openIAT,2020.1.0rc3,iPhone,60,,0,-0.302040816,-0.324489796,1,0,0,1.005,button_left,1.005,1,0,3,3,9,1,stimuli/white_5.jpg,NaN,a,,,,,,,,
,,,,,,,,,,,,,Jj,1,001,male,2024-03-26_10h50.27.385,openIAT,2020.1.0rc3,iPhone,60,,0,-0.306122449,-0.323469388,1,0,0,1.088,button_left,1.088,1,0,4,4,1,1,stimuli/white_1.jpg,NaN,a,,,,,,,,
,,,,,,,,,,,,,Jj,1,001,male,2024-03-26_10h50.27.385,openIAT,2020.1.0rc3,iPhone,60,,0,-0.326530612,-0.379591837,1,0,0,0.871,button_left,0.871,1,0,5,5,3,1,stimuli/white_2.jpg,NaN,a,,,,,,,,
,,,,,,,,,,,,,Jj,1,001,male,2024-03-26_10h50.27.385,openIAT,2020.1.0rc3,iPhone,60,,0,0.279591837,-0.337755102,1,0,0,0.756,button_right,0.756,1,0,6,6,4,1,stimuli/black_3.jpg,NaN,l,,,,,,,,
,,,,,,,,,,,,,Jj,1,001,male,2024-03-26_10h50.27.385,openIAT,2020.1.0rc3,iPhone,60,,0,-0.342857143,-0.366326531,1,0,0,0.888,button_left,0.888,1,0,7,7,5,1,stimuli/white_3.jpg,NaN,a,,,,,,,,
,,,,,,,,,,,,,Jj,1,001,male,2024-03-26_10h50.27.385,openIAT,2020.1.0rc3,iPhone,60,,0,0.267346939,-0.246938776,1,0,0,0.905,button_right,0.905,1,0,8,8,0,1,stimuli/black_1.jpg,NaN,l,,,,,,,,
,,,,,,,,,,,,,Jj,1,001,male,2024-03-26_10h50.27.385,openIAT,2020.1.0rc3,iPhone,60,,0,0.331632653,-0.326530612,1,0,0,0.654,button_right,0.654,1,0,9,9,2,1,stimuli/black_2.jpg,NaN,l,,,,,,,,
,,,,,,,,,,,,,Jj,1,001,male,2024-03-26_10h50.27.385,openIAT,2020.1.0rc3,iPhone,60,,,,,,,,,,,,,,,,,,,,0,1,1,1,1,cong_train.xlsx,"A = 
White","L = 
Black"
,,,,,,,,,,,,,Jj,1,001,male,2024-03-26_10h50.27.385,openIAT,2020.1.0rc3,iPhone,60,,0,0.343877551,-0.320408163,1,0,0,1.204,button_right,1.204,1,0,0,0,0,1,stimuli/black_1.jpg,NaN,l,,,,,,,,
,,,,,,,,,,,,,Jj,1,001,male,2024-03-26_10h50.27.385,openIAT,2020.1.0rc3,iPhone,60,,0,-0.326530612,-0.33877551,1,0,0,0.904,button_left,0.904,1,0,1,1,16,1,stimuli/blank.png,Love,a,,,,,,,,
,,,,,,,,,,,,,Jj,1,001,male,2024-03-26_10h50.27.385,openIAT,2020.1.0rc3,iPhone,60,,0,-0.332653061,-0.343877551,1,0,0,0.82,button_left,0.82,1,0,2,2,14,1,stimuli/blank.png,Pleasure,a,,,,,,,,
,,,,,,,,,,,,,Jj,1,001,male,2024-03-26_10h50.27.385,openIAT,2020.1.0rc3,iPhone,60,,0,-0.367346939,-0.339795918,1,0,0,0.854,button_left,0.854,1,0,3,3,5,1,stimuli/white_3.jpg,NaN,a,,,,,,,,
,,,,,,,,,,,,,Jj,1,001,male,2024-03-26_10h50.27.385,openIAT,2020.1.0rc3,iPhone,60,,0,0.341836735,-0.369387755,1,0,0,0.62,button_right,0.62,1,0,4,4,6,1,stimuli/black_4.jpg,NaN,l,,,,,,,,
,,,,,,,,,,,,,Jj,1,001,male,2024-03-26_10h50.27.385,openIAT,2020.1.0rc3,iPhone,60,,0,-0.294897959,-0.346938776,1,0,0,0.937,button_left,0.937,1,0,5,5,1,1,stimuli/white_1.jpg,NaN,a,,,,,,,,
,,,,,,,,,,,,,Jj,1,001,male,2024-03-26_10h50.27.385,openIAT,2020.1.0rc3,iPhone,60,,0,0.334693878,-0.354081633,1,0,0,0.671,button_right,0.671,1,0,6,6,11,1,stimuli/blank.png,Bad,l,,,,,,,,
,,,,,,,,,,,,,Jj,1,001,male,2024-03-26_10h50.27.385,openIAT,2020.1.0rc3,iPhone,60,,0,-0.303061224,-0.312244898,1,0,0,0.704,button_left,0.704,1,0,7,7,10,1,stimuli/blank.png,Good,a,,,,,,,,
,,,,,,,,,,,,,Jj,1,001,male,2024-03-26_10h50.27.385,openIAT,2020.1.0rc3,iPhone,60,,0,0.359183673,-0.359183673,1,0,0,0.619,button_right,0.619,0,0,8,8,18,1,stimuli/blank.png,Joy,a,,,,,,,,
,,,,,,,,,,,,,Jj,1,001,male,2024-03-26_10h50.27.385,openIAT,2020.1.0rc3,iPhone,60,,0,0.358163265,-0.326530612,1,0,0,0.754,button_right,0.754,1,0,9,9,2,1,stimuli/black_2.jpg,NaN,l,,,,,,,,
,,,,,,,,,,,,,Jj,1,001,male,2024-03-26_10h50.27.385,openIAT,2020.1.0rc3,iPhone,60,,0,0.291836735,-0.382653061,1,0,0,0.772,button_right,0.772,1,0,10,10,19,1,stimuli/blank.png,Nasty,l,,,,,,,,
,,,,,,,,,,,,,Jj,1,001,male,2024-03-26_10h50.27.385,openIAT,2020.1.0rc3,iPhone,60,,0,0.348979592,-0.354081633,1,0,0,0.954,button_right,0.954,1,0,11,11,15,1,stimuli/blank.png,Agony,l,,,,,,,,
,,,,,,,,,,,,,Jj,1,001,male,2024-03-26_10h50.27.385,openIAT,2020.1.0rc3,iPhone,60,,0,0.341836735,-0.332653061,1,0,0,0.671,button_right,0.671,1,0,12,12,17,1,stimuli/blank.png,Evil,l,,,,,,,,
,,,,,,,,,,,,,Jj,1,001,male,2024-03-26_10h50.27.385,openIAT,2020.1.0rc3,iPhone,60,,0,-0.348979592,-0.329591837,1,0,0,0.87,button_left,0.87,1,0,13,13,7,1,stimuli/white_4.jpg,NaN,a,,,,,,,,
,,,,,,,,,,,,,Jj,1,001,male,2024-03-26_10h50.27.385,openIAT,2020.1.0rc3,iPhone,60,,0,0.323469388,-0.412244898,1,0,0,0.954,button_right,0.954,1,0,14,14,4,1,stimuli/black_3.jpg,NaN,l,,,,,,,,
,,,,,,,,,,,,,Jj,1,001,male,2024-03-26_10h50.27.385,openIAT,2020.1.0rc3,iPhone,60,,0,-0.297959184,-0.346938776,1,0,0,0.77,button_left,0.77,1,0,15,15,9,1,stimuli/white_5.jpg,NaN,a,,,,,,,,
,,,,,,,,,,,,,Jj,1,001,male,2024-03-26_10h50.27.385,openIAT,2020.1.0rc3,iPhone,60,,0,-0.320408163,-0.33877551,1,0,0,1.404,button_left,1.404,1,0,16,16,12,1,stimuli/blank.png,Happy,a,,,,,,,,
,,,,,,,,,,,,,Jj,1,001,male,2024-03-26_10h50.27.385,openIAT,2020.1.0rc3,iPhone,60,,0,-0.308163265,-0.307142857,1,0,0,0.82,button_left,0.82,1,0,17,17,3,1,stimuli/white_2.jpg,NaN,a,,,,,,,,
,,,,,,,,,,,,,Jj,1,001,male,2024-03-26_10h50.27.385,openIAT,2020.1.0rc3,iPhone,60,,0,0.324489796,-0.419387755,1,0,0,0.787,button_right,0.787,1,0,18,18,13,1,stimuli/blank.png,Hurt,l,,,,,,,,
,,,,,,,,,,,,,Jj,1,001,male,2024-03-26_10h50.27.385,openIAT,2020.1.0rc3,iPhone,60,,0,0.287755102,-0.304081633,1,0,0,0.955,button_right,0.955,1,0,19,19,8,1,stimuli/black_5.jpg,NaN,l,,,,,,,,
,,,,,,,,,,,,,Jj,1,001,male,2024-03-26_10h50.27.385,openIAT,2020.1.0rc3,iPhone,60,,,,,,,,,,,,,,,,,,,,0,2,2,2,1,cong_test.xlsx,"A = 
White or 
Positive","L = 
Black or 
Negative"
,,,,,,,,,,,,,Jj,1,001,male,2024-03-26_10h50.27.385,openIAT,2020.1.0rc3,iPhone,60,,0,-0.344897959,-0.33877551,1,0,0,0.988,button_left,0.988,1,0,0,0,0,1,stimuli/black_1.jpg,,a,,,,,,,,
,,,,,,,,,,,,,Jj,1,001,male,2024-03-26_10h50.27.385,openIAT,2020.1.0rc3,iPhone,60,,0,0.348979592,-0.342857143,1,0,0,0.933,button_right,0.933,1,0,1,1,9,1,stimuli/white_5.jpg,,l,,,,,,,,
,,,,,,,,,,,,,Jj,1,001,male,2024-03-26_10h50.27.385,openIAT,2020.1.0rc3,iPhone,60,,0,0.302040816,-0.381632653,1,0,0,0.737,button_right,0.737,1,0,2,2,1,1,stimuli/white_1.jpg,,l,,,,,,,,
,,,,,,,,,,,,,Jj,1,001,male,2024-03-26_10h50.27.385,openIAT,2020.1.0rc3,iPhone,60,,0,0.27244898,-0.366326531,1,0,0,0.687,button_right,0.687,1,0,3,3,5,1,stimuli/white_3.jpg,,l,,,,,,,,
,,,,,,,,,,,,,Jj,1,001,male,2024-03-26_10h50.27.385,openIAT,2020.1.0rc3,iPhone,60,,0,0.27755102,-0.363265306,1,0,0,0.62,button_right,0.62,1,0,4,4,7,1,stimuli/white_4.jpg,,l,,,,,,,,
,,,,,,,,,,,,,Jj,1,001,male,2024-03-26_10h50.27.385,openIAT,2020.1.0rc3,iPhone,60,,0,-0.352040816,-0.333673469,1,0,0,0.504,button_left,0.504,1,0,5,5,6,1,stimuli/black_4.jpg,,a,,,,,,,,
,,,,,,,,,,,,,Jj,1,001,male,2024-03-26_10h50.27.385,openIAT,2020.1.0rc3,iPhone,60,,0,-0.344897959,-0.342857143,1,0,0,0.638,button_left,0.638,1,0,6,6,2,1,stimuli/black_2.jpg,,a,,,,,,,,
,,,,,,,,,,,,,Jj,1,001,male,2024-03-26_10h50.27.385,openIAT,2020.1.0rc3,iPhone,60,,0,-0.316326531,-0.343877551,1,0,0,0.671,button_left,0.671,1,0,7,7,4,1,stimuli/black_3.jpg,,a,,,,,,,,
,,,,,,,,,,,,,Jj,1,001,male,2024-03-26_10h50.27.385,openIAT,2020.1.0rc3,iPhone,60,,0,0.307142857,-0.366326531,1,0,0,0.521,button_right,0.521,1,0,8,8,3,1,stimuli/white_2.jpg,,l,,,,,,,,
,,,,,,,,,,,,,Jj,1,001,male,2024-03-26_10h50.27.385,openIAT,2020.1.0rc3,iPhone,60,,0,-0.329591837,-0.332653061,1,0,0,0.755,button_left,0.755,1,0,9,9,8,1,stimuli/black_5.jpg,,a,,,,,,,,
,,,,,,,,,,,,,Jj,1,001,male,2024-03-26_10h50.27.385,openIAT,2020.1.0rc3,iPhone,60,,,,,,,,,,,,,,,,,,,,0,3,3,3,1,incong_train.xlsx,"A = 
Black","L = 
White"
,,,,,,,,,,,,,Jj,1,001,male,2024-03-26_10h50.27.385,openIAT,2020.1.0rc3,iPhone,60,,0,-0.368367347,-0.289795918,1,0,0,2.339,button_left,2.339,1,0,0,0,0,1,stimuli/black_1.jpg,,a,,,,,,,,
,,,,,,,,,,,,,Jj,1,001,male,2024-03-26_10h50.27.385,openIAT,2020.1.0rc3,iPhone,60,,0,-0.348979592,-0.363265306,1,0,0,1.238,button_left,1.238,1,0,1,1,8,1,stimuli/black_5.jpg,,a,,,,,,,,
,,,,,,,,,,,,,Jj,1,001,male,2024-03-26_10h50.27.385,openIAT,2020.1.0rc3,iPhone,60,,0,-0.332653061,-0.369387755,1,0,0,0.937,button_left,0.937,1,0,2,2,18,1,stimuli/blank.png,Joy,a,,,,,,,,
,,,,,,,,,,,,,Jj,1,001,male,2024-03-26_10h50.27.385,openIAT,2020.1.0rc3,iPhone,60,,0,-0.316326531,-0.336734694,1,0,0,0.954,button_left,0.954,1,0,3,3,6,1,stimuli/black_4.jpg,,a,,,,,,,,
,,,,,,,,,,,,,Jj,1,001,male,2024-03-26_10h50.27.385,openIAT,2020.1.0rc3,iPhone,60,,0,-0.294897959,-0.314285714,1,0,0,1.604,button_left,1.604,1,0,4,4,14,1,stimuli/blank.png,Pleasure,a,,,,,,,,
,,,,,,,,,,,,,Jj,1,001,male,2024-03-26_10h50.27.385,openIAT,2020.1.0rc3,iPhone,60,,0,0.366326531,-0.369387755,1,0,0,0.754,button_right,0.754,1,0,5,5,3,1,stimuli/white_2.jpg,,l,,,,,,,,
,,,,,,,,,,,,,Jj,1,001,male,2024-03-26_10h50.27.385,openIAT,2020.1.0rc3,iPhone,60,,0,0.35,-0.336734694,1,0,0,0.905,button_right,0.905,1,0,6,6,17,1,stimuli/blank.png,Evil,l,,,,,,,,
,,,,,,,,,,,,,Jj,1,001,male,2024-03-26_10h50.27.385,openIAT,2020.1.0rc3,iPhone,60,,0,0.355102041,-0.323469388,1,0,0,0.639,button_right,0.639,1,0,7,7,9,1,stimuli/white_5.jpg,,l,,,,,,,,
,,,,,,,,,,,,,Jj,1,001,male,2024-03-26_10h50.27.385,openIAT,2020.1.0rc3,iPhone,60,,0,0.347959184,-0.337755102,1,0,0,1.888,button_right,1.888,1,0,8,8,5,1,stimuli/white_3.jpg,,l,,,,,,,,
,,,,,,,,,,,,,Jj,1,001,male,2024-03-26_10h50.27.385,openIAT,2020.1.0rc3,iPhone,60,,0,-0.340816327,-0.316326531,1,0,0,0.987,button_left,0.987,1,0,9,9,2,1,stimuli/black_2.jpg,,a,,,,,,,,
,,,,,,,,,,,,,Jj,1,001,male,2024-03-26_10h50.27.385,openIAT,2020.1.0rc3,iPhone,60,,0,-0.326530612,-0.347959184,1,0,0,0.772,button_left,0.772,1,0,10,10,4,1,stimuli/black_3.jpg,,a,,,,,,,,
,,,,,,,,,,,,,Jj,1,001,male,2024-03-26_10h50.27.385,openIAT,2020.1.0rc3,iPhone,60,,0,0.354081633,-0.331632653,1,0,0,1.622,button_right,1.622,1,0,11,11,13,1,stimuli/blank.png,Hurt,l,,,,,,,,
,,,,,,,,,,,,,Jj,1,001,male,2024-03-26_10h50.27.385,openIAT,2020.1.0rc3,iPhone,60,,0,-0.297959184,-0.341836735,1,0,0,0.821,button_left,0.821,1,0,12,12,12,1,stimuli/blank.png,Happy,a,,,,,,,,
,,,,,,,,,,,,,Jj,1,001,male,2024-03-26_10h50.27.385,openIAT,2020.1.0rc3,iPhone,60,,0,0.260204082,-0.398979592,1,0,0,0.754,button_right,0.754,1,0,13,13,19,1,stimuli/blank.png,Nasty,l,,,,,,,,
,,,,,,,,,,,,,Jj,1,001,male,2024-03-26_10h50.27.385,openIAT,2020.1.0rc3,iPhone,60,,0,-0.316326531,-0.347959184,1,0,0,1.354,button_left,1.354,1,0,14,14,16,1,stimuli/blank.png,Love,a,,,,,,,,
,,,,,,,,,,,,,Jj,1,001,male,2024-03-26_10h50.27.385,openIAT,2020.1.0rc3,iPhone,60,,0,0.304081633,-0.366326531,1,0,0,0.926,button_right,0.926,1,0,15,15,7,1,stimuli/white_4.jpg,,l,,,,,,,,
,,,,,,,,,,,,,Jj,1,001,male,2024-03-26_10h50.27.385,openIAT,2020.1.0rc3,iPhone,60,,0,0.331632653,-0.348979592,1,0,0,0.77,button_right,0.77,1,0,16,16,1,1,stimuli/white_1.jpg,,l,,,,,,,,
,,,,,,,,,,,,,Jj,1,001,male,2024-03-26_10h50.27.385,openIAT,2020.1.0rc3,iPhone,60,,0,-0.330612245,-0.359183673,1,0,0,1.071,button_left,1.071,1,0,17,17,10,1,stimuli/blank.png,Good,a,,,,,,,,
,,,,,,,,,,,,,Jj,1,001,male,2024-03-26_10h50.27.385,openIAT,2020.1.0rc3,iPhone,60,,0,0.308163265,-0.343877551,1,0,0,1.037,button_right,1.037,1,0,18,18,15,1,stimuli/blank.png,Agony,l,,,,,,,,
,,,,,,,,,,,,,Jj,1,001,male,2024-03-26_10h50.27.385,openIAT,2020.1.0rc3,iPhone,60,,0,0.326530612,-0.374489796,1,0,0,1.188,button_right,1.188,1,0,19,19,11,1,stimuli/blank.png,Bad,l,,,,,,,,
