instr_done_touch.x,instr_done_touch.y,instr_done_touch.leftButton,instr_done_touch.midButton,instr_done_touch.rightButton,instr_done_touch.clicked_name,instruct_pages.thisRepN,instruct_pages.thisTrialN,instruct_pages.thisN,instruct_pages.thisIndex,instruct_pages.ran,pageN,instruct_text,participant,order,session,gender,date,expName,psychopyVersion,OS,frameRate,key_resp.keys,key_resp.corr,key_resp.rt,touch_resp.x,touch_resp.y,touch_resp.leftButton,touch_resp.midButton,touch_resp.rightButton,touch_resp.time,touch_resp.clicked_name,rt,corr,trials.thisRepN,trials.thisTrialN,trials.thisN,trials.thisIndex,trials.ran,stimImage,stimWord,CorrAns,blocks.thisRepN,blocks.thisTrialN,blocks.thisN,blocks.thisIndex,blocks.ran,conds_file,label_left,label_right
0.020807292,-0.386853299,1,0,0,instr_done_button,0,0,0,0,1,1,"You will be presented with words or images to classify into categories using either the 'A' or 'L' key. 
 
Try to go as fast as possible while making as few mistakes as possible. 
",jopèjopj,1,001,male,2023-10-05_19h01.13.260,openIAT,2020.1.0rc3,MacIntel,60,,,,,,,,,,,,,,,,,,,,,,,,,,,,
0.104136285,-0.42015191,1,0,0,instr_done_button,0,1,1,1,1,2,"Keep in mind: 
 
1) Labels at the top of the screen indicate which catogory goes with which key. 
 
2) Each word or image has a correct catogory classification 
 
3) Keep your index fingers on the A and L keys to enable a rapid response. 
 
4) The test gives no results if you go slow- please try to go as fast as possible 
",jopèjopj,1,001,male,2023-10-05_19h01.13.260,openIAT,2020.1.0rc3,MacIntel,60,,,,,,,,,,,,,,,,,,,,,,,,,,,,
,,,,,,,,,,,,,jopèjopj,1,001,male,2023-10-05_19h01.13.260,openIAT,2020.1.0rc3,MacIntel,60,a,1,3.2834,,,,,,,,3.2834,1,0,0,0,4,1,stimuli/blank.png,Pleasure,a,,,,,,,,
,,,,,,,,,,,,,jopèjopj,1,001,male,2023-10-05_19h01.13.260,openIAT,2020.1.0rc3,MacIntel,60,a,1,1.4289,,,,,,,,1.4289,1,0,1,1,0,1,stimuli/blank.png,Good,a,,,,,,,,
,,,,,,,,,,,,,jopèjopj,1,001,male,2023-10-05_19h01.13.260,openIAT,2020.1.0rc3,MacIntel,60,a,1,3.5603,,,,,,,,3.5603,1,0,2,2,2,1,stimuli/blank.png,Happy,a,,,,,,,,
,,,,,,,,,,,,,jopèjopj,1,001,male,2023-10-05_19h01.13.260,openIAT,2020.1.0rc3,MacIntel,60,l,1,1.1594,,,,,,,,1.1594,1,0,3,3,3,1,stimuli/blank.png,Hurt,l,,,,,,,,
,,,,,,,,,,,,,jopèjopj,1,001,male,2023-10-05_19h01.13.260,openIAT,2020.1.0rc3,MacIntel,60,a,1,1.2803,,,,,,,,1.2803,1,0,4,4,6,1,stimuli/blank.png,Love,a,,,,,,,,
,,,,,,,,,,,,,jopèjopj,1,001,male,2023-10-05_19h01.13.260,openIAT,2020.1.0rc3,MacIntel,60,l,1,0.8587,,,,,,,,0.8587,1,0,5,5,7,1,stimuli/blank.png,Evil,l,,,,,,,,
,,,,,,,,,,,,,jopèjopj,1,001,male,2023-10-05_19h01.13.260,openIAT,2020.1.0rc3,MacIntel,60,a,0,1.1622,,,,,,,,1.1622,0,0,6,6,5,1,stimuli/blank.png,Agony,l,,,,,,,,
,,,,,,,,,,,,,jopèjopj,1,001,male,2023-10-05_19h01.13.260,openIAT,2020.1.0rc3,MacIntel,60,l,1,1.0615,,,,,,,,1.0615,1,0,7,7,9,1,stimuli/blank.png,Nasty,l,,,,,,,,
,,,,,,,,,,,,,jopèjopj,1,001,male,2023-10-05_19h01.13.260,openIAT,2020.1.0rc3,MacIntel,60,a,1,1.2697,,,,,,,,1.2697,1,0,8,8,8,1,stimuli/blank.png,Joy,a,,,,,,,,
,,,,,,,,,,,,,jopèjopj,1,001,male,2023-10-05_19h01.13.260,openIAT,2020.1.0rc3,MacIntel,60,l,1,1.243,,,,,,,,1.243,1,0,9,9,1,1,stimuli/blank.png,Bad,l,,,,,,,,
,,,,,,,,,,,,,jopèjopj,1,001,male,2023-10-05_19h01.13.260,openIAT,2020.1.0rc3,MacIntel,60,,,,,,,,,,,,,,,,,,,,,0,0,0,0,1,pos_neg_train.xlsx,"A = 
Positive","L = 
Negative"
,,,,,,,,,,,,,jopèjopj,1,001,male,2023-10-05_19h01.13.260,openIAT,2020.1.0rc3,MacIntel,60,l,0,2.5109,,,,,,,,2.5109,0,0,0,0,1,1,stimuli/white_1.jpg,NaN,a,,,,,,,,
,,,,,,,,,,,,,jopèjopj,1,001,male,2023-10-05_19h01.13.260,openIAT,2020.1.0rc3,MacIntel,60,l,1,1.4116,,,,,,,,1.4116,1,0,1,1,4,1,stimuli/black_3.jpg,NaN,l,,,,,,,,
,,,,,,,,,,,,,jopèjopj,1,001,male,2023-10-05_19h01.13.260,openIAT,2020.1.0rc3,MacIntel,60,a,1,0.9029,,,,,,,,0.9029,1,0,2,2,5,1,stimuli/white_3.jpg,NaN,a,,,,,,,,
,,,,,,,,,,,,,jopèjopj,1,001,male,2023-10-05_19h01.13.260,openIAT,2020.1.0rc3,MacIntel,60,l,0,0.7972,,,,,,,,0.7972,0,0,3,3,7,1,stimuli/white_4.jpg,NaN,a,,,,,,,,
,,,,,,,,,,,,,jopèjopj,1,001,male,2023-10-05_19h01.13.260,openIAT,2020.1.0rc3,MacIntel,60,a,1,2.9433,,,,,,,,2.9433,1,0,4,4,3,1,stimuli/white_2.jpg,NaN,a,,,,,,,,
,,,,,,,,,,,,,jopèjopj,1,001,male,2023-10-05_19h01.13.260,openIAT,2020.1.0rc3,MacIntel,60,a,1,1.461,,,,,,,,1.461,1,0,5,5,9,1,stimuli/white_5.jpg,NaN,a,,,,,,,,
,,,,,,,,,,,,,jopèjopj,1,001,male,2023-10-05_19h01.13.260,openIAT,2020.1.0rc3,MacIntel,60,a,0,0.8986,,,,,,,,0.8986,0,0,6,6,8,1,stimuli/black_5.jpg,NaN,l,,,,,,,,
,,,,,,,,,,,,,jopèjopj,1,001,male,2023-10-05_19h01.13.260,openIAT,2020.1.0rc3,MacIntel,60,l,1,0.966,,,,,,,,0.966,1,0,7,7,0,1,stimuli/black_1.jpg,NaN,l,,,,,,,,
,,,,,,,,,,,,,jopèjopj,1,001,male,2023-10-05_19h01.13.260,openIAT,2020.1.0rc3,MacIntel,60,l,1,0.7199,,,,,,,,0.7199,1,0,8,8,2,1,stimuli/black_2.jpg,NaN,l,,,,,,,,
,,,,,,,,,,,,,jopèjopj,1,001,male,2023-10-05_19h01.13.260,openIAT,2020.1.0rc3,MacIntel,60,l,1,0.5809,,,,,,,,0.5809,1,0,9,9,6,1,stimuli/black_4.jpg,NaN,l,,,,,,,,
,,,,,,,,,,,,,jopèjopj,1,001,male,2023-10-05_19h01.13.260,openIAT,2020.1.0rc3,MacIntel,60,,,,,,,,,,,,,,,,,,,,,0,1,1,1,1,cong_train.xlsx,"A = 
White","L = 
Black"
,,,,,,,,,,,,,jopèjopj,1,001,male,2023-10-05_19h01.13.260,openIAT,2020.1.0rc3,MacIntel,60,a,1,1.9439,,,,,,,,1.9439,1,0,0,0,14,1,stimuli/blank.png,Pleasure,a,,,,,,,,
,,,,,,,,,,,,,jopèjopj,1,001,male,2023-10-05_19h01.13.260,openIAT,2020.1.0rc3,MacIntel,60,a,1,0.94,,,,,,,,0.94,1,0,1,1,9,1,stimuli/white_5.jpg,NaN,a,,,,,,,,
,,,,,,,,,,,,,jopèjopj,1,001,male,2023-10-05_19h01.13.260,openIAT,2020.1.0rc3,MacIntel,60,l,1,0.7114,,,,,,,,0.7114,1,0,2,2,2,1,stimuli/black_2.jpg,NaN,l,,,,,,,,
,,,,,,,,,,,,,jopèjopj,1,001,male,2023-10-05_19h01.13.260,openIAT,2020.1.0rc3,MacIntel,60,l,0,0.7113,,,,,,,,0.7113,0,0,3,3,7,1,stimuli/white_4.jpg,NaN,a,,,,,,,,
