instr_done_touch.x,instr_done_touch.y,instr_done_touch.leftButton,instr_done_touch.midButton,instr_done_touch.rightButton,instruct_pages.thisRepN,instruct_pages.thisTrialN,instruct_pages.thisN,instruct_pages.thisIndex,instruct_pages.ran,pageN,instruct_text,participant,order,session,gender,date,expName,psychopyVersion,OS,frameRate,key_resp.keys,key_resp.corr,key_resp.rt,touch_resp.x,touch_resp.y,touch_resp.leftButton,touch_resp.midButton,touch_resp.rightButton,touch_resp.time,touch_resp.clicked_name,rt,corr,trials.thisRepN,trials.thisTrialN,trials.thisN,trials.thisIndex,trials.ran,stimImage,stimWord,CorrAns,blocks.thisRepN,blocks.thisTrialN,blocks.thisN,blocks.thisIndex,blocks.ran,conds_file,label_left,label_right
0.076241523,-0.375748562,0,0,0,0,0,0,0,1,1,"You will be presented with words or images to classify into categories using either the 'A' or 'L' key. 
 
Try to go as fast as possible while making as few mistakes as possible. 
",k,1,001,male,2021-11-24_14h56.16.946,openIAT,2020.1.0rc3,MacIntel,60,,,,,,,,,,,,,,,,,,,,,,,,,,,,
0.076241523,-0.375748562,0,0,0,0,1,1,1,1,2,"Keep in mind: 
 
1) Labels at the top of the screen indicate which catogory goes with which key. 
 
2) Each word or image has a correct catogory classification 
 
3) Keep your index fingers on the A and L keys to enable a rapid response. 
 
4) The test gives no results if you go slow- please try to go as fast as possible 
",k,1,001,male,2021-11-24_14h56.16.946,openIAT,2020.1.0rc3,MacIntel,60,,,,,,,,,,,,,,,,,,,,,,,,,,,,
,,,,,,,,,,,,k,1,001,male,2021-11-24_14h56.16.946,openIAT,2020.1.0rc3,MacIntel,60,a,1,1.0443,,,,,,,,1.0443,1,0,0,0,2,1,stimuli/blank.png,Happy,a,,,,,,,,
,,,,,,,,,,,,k,1,001,male,2021-11-24_14h56.16.946,openIAT,2020.1.0rc3,MacIntel,60,a,1,0.9163,,,,,,,,0.9163,1,0,1,1,0,1,stimuli/blank.png,Good,a,,,,,,,,
,,,,,,,,,,,,k,1,001,male,2021-11-24_14h56.16.946,openIAT,2020.1.0rc3,MacIntel,60,a,0,1.1435,,,,,,,,1.1435,0,0,2,2,1,1,stimuli/blank.png,Bad,l,,,,,,,,
,,,,,,,,,,,,k,1,001,male,2021-11-24_14h56.16.946,openIAT,2020.1.0rc3,MacIntel,60,l,1,1.5289,,,,,,,,1.5289,1,0,3,3,5,1,stimuli/blank.png,Agony,l,,,,,,,,
,,,,,,,,,,,,k,1,001,male,2021-11-24_14h56.16.946,openIAT,2020.1.0rc3,MacIntel,60,l,1,0.7792,,,,,,,,0.7792,1,0,4,4,3,1,stimuli/blank.png,Hurt,l,,,,,,,,
,,,,,,,,,,,,k,1,001,male,2021-11-24_14h56.16.946,openIAT,2020.1.0rc3,MacIntel,60,a,1,1.0612,,,,,,,,1.0612,1,0,5,5,4,1,stimuli/blank.png,Pleasure,a,,,,,,,,
,,,,,,,,,,,,k,1,001,male,2021-11-24_14h56.16.946,openIAT,2020.1.0rc3,MacIntel,60,l,1,1.5954,,,,,,,,1.5954,1,0,6,6,7,1,stimuli/blank.png,Evil,l,,,,,,,,
,,,,,,,,,,,,k,1,001,male,2021-11-24_14h56.16.946,openIAT,2020.1.0rc3,MacIntel,60,a,1,0.8823,,,,,,,,0.8823,1,0,7,7,6,1,stimuli/blank.png,Love,a,,,,,,,,
,,,,,,,,,,,,k,1,001,male,2021-11-24_14h56.16.946,openIAT,2020.1.0rc3,MacIntel,60,l,1,1.31,,,,,,,,1.31,1,0,8,8,9,1,stimuli/blank.png,Nasty,l,,,,,,,,
,,,,,,,,,,,,k,1,001,male,2021-11-24_14h56.16.946,openIAT,2020.1.0rc3,MacIntel,60,a,1,0.9466,,,,,,,,0.9466,1,0,9,9,8,1,stimuli/blank.png,Joy,a,,,,,,,,
,,,,,,,,,,,,k,1,001,male,2021-11-24_14h56.16.946,openIAT,2020.1.0rc3,MacIntel,60,,,,,,,,,,,,,,,,,,,,,0,0,0,0,1,pos_neg_train.xlsx,"A = 
Positive","L = 
Negative"
,,,,,,,,,,,,k,1,001,male,2021-11-24_14h56.16.946,openIAT,2020.1.0rc3,MacIntel,60,l,1,1.8983,,,,,,,,1.8983,1,0,0,0,4,1,stimuli/black_3.jpg,NaN,l,,,,,,,,
,,,,,,,,,,,,k,1,001,male,2021-11-24_14h56.16.946,openIAT,2020.1.0rc3,MacIntel,60,a,1,1.695,,,,,,,,1.695,1,0,1,1,9,1,stimuli/white_5.jpg,NaN,a,,,,,,,,
,,,,,,,,,,,,k,1,001,male,2021-11-24_14h56.16.946,openIAT,2020.1.0rc3,MacIntel,60,a,1,0.7465,,,,,,,,0.7465,1,0,2,2,3,1,stimuli/white_2.jpg,NaN,a,,,,,,,,
,,,,,,,,,,,,k,1,001,male,2021-11-24_14h56.16.946,openIAT,2020.1.0rc3,MacIntel,60,l,0,0.7622,,,,,,,,0.7622,0,0,3,3,7,1,stimuli/white_4.jpg,NaN,a,,,,,,,,
,,,,,,,,,,,,k,1,001,male,2021-11-24_14h56.16.946,openIAT,2020.1.0rc3,MacIntel,60,a,1,0.7279,,,,,,,,0.7279,1,0,4,4,5,1,stimuli/white_3.jpg,NaN,a,,,,,,,,
,,,,,,,,,,,,k,1,001,male,2021-11-24_14h56.16.946,openIAT,2020.1.0rc3,MacIntel,60,l,1,0.7156,,,,,,,,0.7156,1,0,5,5,2,1,stimuli/black_2.jpg,NaN,l,,,,,,,,
,,,,,,,,,,,,k,1,001,male,2021-11-24_14h56.16.946,openIAT,2020.1.0rc3,MacIntel,60,l,1,0.5974,,,,,,,,0.5974,1,0,6,6,8,1,stimuli/black_5.jpg,NaN,l,,,,,,,,
,,,,,,,,,,,,k,1,001,male,2021-11-24_14h56.16.946,openIAT,2020.1.0rc3,MacIntel,60,l,1,1.0763,,,,,,,,1.0763,1,0,7,7,6,1,stimuli/black_4.jpg,NaN,l,,,,,,,,
,,,,,,,,,,,,k,1,001,male,2021-11-24_14h56.16.946,openIAT,2020.1.0rc3,MacIntel,60,l,1,0.5678,,,,,,,,0.5678,1,0,8,8,0,1,stimuli/black_1.jpg,NaN,l,,,,,,,,
,,,,,,,,,,,,k,1,001,male,2021-11-24_14h56.16.946,openIAT,2020.1.0rc3,MacIntel,60,a,1,0.714,,,,,,,,0.714,1,0,9,9,1,1,stimuli/white_1.jpg,NaN,a,,,,,,,,
,,,,,,,,,,,,k,1,001,male,2021-11-24_14h56.16.946,openIAT,2020.1.0rc3,MacIntel,60,,,,,,,,,,,,,,,,,,,,,0,1,1,1,1,cong_train.xlsx,"A = 
White","L = 
Black"
,,,,,,,,,,,,k,1,001,male,2021-11-24_14h56.16.946,openIAT,2020.1.0rc3,MacIntel,60,a,1,0.8306,,,,,,,,0.8306,1,0,0,0,9,1,stimuli/white_5.jpg,NaN,a,,,,,,,,
,,,,,,,,,,,,k,1,001,male,2021-11-24_14h56.16.946,openIAT,2020.1.0rc3,MacIntel,60,l,1,40.9809,,,,,,,,40.9809,1,0,1,1,2,1,stimuli/black_2.jpg,NaN,l,,,,,,,,
,,,,,,,,,,,,k,1,001,male,2021-11-24_14h56.16.946,openIAT,2020.1.0rc3,MacIntel,60,a,1,9.0111,,,,,,,,9.0111,1,0,2,2,14,1,stimuli/blank.png,Pleasure,a,,,,,,,,
,,,,,,,,,,,,k,1,001,male,2021-11-24_14h56.16.946,openIAT,2020.1.0rc3,MacIntel,60,a,1,0.5114,,,,,,,,0.5114,1,0,3,3,10,1,stimuli/blank.png,Good,a,,,,,,,,
,,,,,,,,,,,,k,1,001,male,2021-11-24_14h56.16.946,openIAT,2020.1.0rc3,MacIntel,60,a,1,1.4793,,,,,,,,1.4793,1,0,4,4,3,1,stimuli/white_2.jpg,NaN,a,,,,,,,,
,,,,,,,,,,,,k,1,001,male,2021-11-24_14h56.16.946,openIAT,2020.1.0rc3,MacIntel,60,a,1,0.579,,,,,,,,0.579,1,0,5,5,12,1,stimuli/blank.png,Happy,a,,,,,,,,
,,,,,,,,,,,,k,1,001,male,2021-11-24_14h56.16.946,openIAT,2020.1.0rc3,MacIntel,60,l,1,0.7973,,,,,,,,0.7973,1,0,6,6,17,1,stimuli/blank.png,Evil,l,,,,,,,,
,,,,,,,,,,,,k,1,001,male,2021-11-24_14h56.16.946,openIAT,2020.1.0rc3,MacIntel,60,a,0,0.5308,,,,,,,,0.5308,0,0,7,7,0,1,stimuli/black_1.jpg,NaN,l,,,,,,,,
,,,,,,,,,,,,k,1,001,male,2021-11-24_14h56.16.946,openIAT,2020.1.0rc3,MacIntel,60,a,1,0.6136,,,,,,,,0.6136,1,0,8,8,16,1,stimuli/blank.png,Love,a,,,,,,,,
,,,,,,,,,,,,k,1,001,male,2021-11-24_14h56.16.946,openIAT,2020.1.0rc3,MacIntel,60,l,1,0.6285,,,,,,,,0.6285,1,0,9,9,15,1,stimuli/blank.png,Agony,l,,,,,,,,
,,,,,,,,,,,,k,1,001,male,2021-11-24_14h56.16.946,openIAT,2020.1.0rc3,MacIntel,60,a,1,0.8334,,,,,,,,0.8334,1,0,10,10,7,1,stimuli/white_4.jpg,NaN,a,,,,,,,,
,,,,,,,,,,,,k,1,001,male,2021-11-24_14h56.16.946,openIAT,2020.1.0rc3,MacIntel,60,l,1,0.5863,,,,,,,,0.5863,1,0,11,11,13,1,stimuli/blank.png,Hurt,l,,,,,,,,
,,,,,,,,,,,,k,1,001,male,2021-11-24_14h56.16.946,openIAT,2020.1.0rc3,MacIntel,60,a,1,0.8279,,,,,,,,0.8279,1,0,12,12,5,1,stimuli/white_3.jpg,NaN,a,,,,,,,,
,,,,,,,,,,,,k,1,001,male,2021-11-24_14h56.16.946,openIAT,2020.1.0rc3,MacIntel,60,l,0,0.6446,,,,,,,,0.6446,0,0,13,13,18,1,stimuli/blank.png,Joy,a,,,,,,,,
,,,,,,,,,,,,k,1,001,male,2021-11-24_14h56.16.946,openIAT,2020.1.0rc3,MacIntel,60,l,1,0.6177,,,,,,,,0.6177,1,0,14,14,19,1,stimuli/blank.png,Nasty,l,,,,,,,,
,,,,,,,,,,,,k,1,001,male,2021-11-24_14h56.16.946,openIAT,2020.1.0rc3,MacIntel,60,l,1,0.7829,,,,,,,,0.7829,1,0,15,15,11,1,stimuli/blank.png,Bad,l,,,,,,,,
,,,,,,,,,,,,k,1,001,male,2021-11-24_14h56.16.946,openIAT,2020.1.0rc3,MacIntel,60,l,1,1.1283,,,,,,,,1.1283,1,0,16,16,4,1,stimuli/black_3.jpg,NaN,l,,,,,,,,
,,,,,,,,,,,,k,1,001,male,2021-11-24_14h56.16.946,openIAT,2020.1.0rc3,MacIntel,60,a,1,0.6027,,,,,,,,0.6027,1,0,17,17,1,1,stimuli/white_1.jpg,NaN,a,,,,,,,,
,,,,,,,,,,,,k,1,001,male,2021-11-24_14h56.16.946,openIAT,2020.1.0rc3,MacIntel,60,l,1,0.6441,,,,,,,,0.6441,1,0,18,18,8,1,stimuli/black_5.jpg,NaN,l,,,,,,,,
,,,,,,,,,,,,k,1,001,male,2021-11-24_14h56.16.946,openIAT,2020.1.0rc3,MacIntel,60,l,1,0.6665,,,,,,,,0.6665,1,0,19,19,6,1,stimuli/black_4.jpg,NaN,l,,,,,,,,
,,,,,,,,,,,,k,1,001,male,2021-11-24_14h56.16.946,openIAT,2020.1.0rc3,MacIntel,60,,,,,,,,,,,,,,,,,,,,,0,2,2,2,1,cong_test.xlsx,"A = 
White or 
Positive","L = 
Black or 
Negative"
,,,,,,,,,,,,k,1,001,male,2021-11-24_14h56.16.946,openIAT,2020.1.0rc3,MacIntel,60,a,1,1.1182,,,,,,,,1.1182,1,0,0,0,4,1,stimuli/black_3.jpg,,a,,,,,,,,
,,,,,,,,,,,,k,1,001,male,2021-11-24_14h56.16.946,openIAT,2020.1.0rc3,MacIntel,60,l,0,0.3289,,,,,,,,0.3289,0,0,1,1,8,1,stimuli/black_5.jpg,,a,,,,,,,,
,,,,,,,,,,,,k,1,001,male,2021-11-24_14h56.16.946,openIAT,2020.1.0rc3,MacIntel,60,a,1,0.6285,,,,,,,,0.6285,1,0,2,2,6,1,stimuli/black_4.jpg,,a,,,,,,,,
,,,,,,,,,,,,k,1,001,male,2021-11-24_14h56.16.946,openIAT,2020.1.0rc3,MacIntel,60,l,1,0.8299,,,,,,,,0.8299,1,0,3,3,3,1,stimuli/white_2.jpg,,l,,,,,,,,
,,,,,,,,,,,,k,1,001,male,2021-11-24_14h56.16.946,openIAT,2020.1.0rc3,MacIntel,60,l,1,0.746,,,,,,,,0.746,1,0,4,4,5,1,stimuli/white_3.jpg,,l,,,,,,,,
,,,,,,,,,,,,k,1,001,male,2021-11-24_14h56.16.946,openIAT,2020.1.0rc3,MacIntel,60,l,1,0.5768,,,,,,,,0.5768,1,0,5,5,9,1,stimuli/white_5.jpg,,l,,,,,,,,
,,,,,,,,,,,,k,1,001,male,2021-11-24_14h56.16.946,openIAT,2020.1.0rc3,MacIntel,60,l,1,0.4969,,,,,,,,0.4969,1,0,6,6,7,1,stimuli/white_4.jpg,,l,,,,,,,,
,,,,,,,,,,,,k,1,001,male,2021-11-24_14h56.16.946,openIAT,2020.1.0rc3,MacIntel,60,l,0,0.3466,,,,,,,,0.3466,0,0,7,7,0,1,stimuli/black_1.jpg,,a,,,,,,,,
,,,,,,,,,,,,k,1,001,male,2021-11-24_14h56.16.946,openIAT,2020.1.0rc3,MacIntel,60,l,1,0.611,,,,,,,,0.611,1,0,8,8,1,1,stimuli/white_1.jpg,,l,,,,,,,,
,,,,,,,,,,,,k,1,001,male,2021-11-24_14h56.16.946,openIAT,2020.1.0rc3,MacIntel,60,a,1,0.5999,,,,,,,,0.5999,1,0,9,9,2,1,stimuli/black_2.jpg,,a,,,,,,,,
,,,,,,,,,,,,k,1,001,male,2021-11-24_14h56.16.946,openIAT,2020.1.0rc3,MacIntel,60,,,,,,,,,,,,,,,,,,,,,0,3,3,3,1,incong_train.xlsx,"A = 
Black","L = 
White"
,,,,,,,,,,,,k,1,001,male,2021-11-24_14h56.16.946,openIAT,2020.1.0rc3,MacIntel,60,l,1,1.1945,,,,,,,,1.1945,1,0,0,0,19,1,stimuli/blank.png,Nasty,l,,,,,,,,
,,,,,,,,,,,,k,1,001,male,2021-11-24_14h56.16.946,openIAT,2020.1.0rc3,MacIntel,60,a,1,0.7965,,,,,,,,0.7965,1,0,1,1,0,1,stimuli/black_1.jpg,,a,,,,,,,,
,,,,,,,,,,,,k,1,001,male,2021-11-24_14h56.16.946,openIAT,2020.1.0rc3,MacIntel,60,l,1,0.863,,,,,,,,0.863,1,0,2,2,17,1,stimuli/blank.png,Evil,l,,,,,,,,
,,,,,,,,,,,,k,1,001,male,2021-11-24_14h56.16.946,openIAT,2020.1.0rc3,MacIntel,60,a,1,0.9444,,,,,,,,0.9444,1,0,3,3,8,1,stimuli/black_5.jpg,,a,,,,,,,,
,,,,,,,,,,,,k,1,001,male,2021-11-24_14h56.16.946,openIAT,2020.1.0rc3,MacIntel,60,a,1,0.9113,,,,,,,,0.9113,1,0,4,4,10,1,stimuli/blank.png,Good,a,,,,,,,,
,,,,,,,,,,,,k,1,001,male,2021-11-24_14h56.16.946,openIAT,2020.1.0rc3,MacIntel,60,l,1,0.5273,,,,,,,,0.5273,1,0,5,5,11,1,stimuli/blank.png,Bad,l,,,,,,,,
,,,,,,,,,,,,k,1,001,male,2021-11-24_14h56.16.946,openIAT,2020.1.0rc3,MacIntel,60,a,1,0.6952,,,,,,,,0.6952,1,0,6,6,18,1,stimuli/blank.png,Joy,a,,,,,,,,
,,,,,,,,,,,,k,1,001,male,2021-11-24_14h56.16.946,openIAT,2020.1.0rc3,MacIntel,60,l,1,1.1623,,,,,,,,1.1623,1,0,7,7,3,1,stimuli/white_2.jpg,,l,,,,,,,,
,,,,,,,,,,,,k,1,001,male,2021-11-24_14h56.16.946,openIAT,2020.1.0rc3,MacIntel,60,a,1,0.6139,,,,,,,,0.6139,1,0,8,8,4,1,stimuli/black_3.jpg,,a,,,,,,,,
,,,,,,,,,,,,k,1,001,male,2021-11-24_14h56.16.946,openIAT,2020.1.0rc3,MacIntel,60,l,1,0.68,,,,,,,,0.68,1,0,9,9,7,1,stimuli/white_4.jpg,,l,,,,,,,,
,,,,,,,,,,,,k,1,001,male,2021-11-24_14h56.16.946,openIAT,2020.1.0rc3,MacIntel,60,a,1,0.6445,,,,,,,,0.6445,1,0,10,10,6,1,stimuli/black_4.jpg,,a,,,,,,,,
,,,,,,,,,,,,k,1,001,male,2021-11-24_14h56.16.946,openIAT,2020.1.0rc3,MacIntel,60,a,1,1.0452,,,,,,,,1.0452,1,0,11,11,16,1,stimuli/blank.png,Love,a,,,,,,,,
,,,,,,,,,,,,k,1,001,male,2021-11-24_14h56.16.946,openIAT,2020.1.0rc3,MacIntel,60,a,1,0.7756,,,,,,,,0.7756,1,0,12,12,12,1,stimuli/blank.png,Happy,a,,,,,,,,
,,,,,,,,,,,,k,1,001,male,2021-11-24_14h56.16.946,openIAT,2020.1.0rc3,MacIntel,60,a,1,0.5639,,,,,,,,0.5639,1,0,13,13,14,1,stimuli/blank.png,Pleasure,a,,,,,,,,
,,,,,,,,,,,,k,1,001,male,2021-11-24_14h56.16.946,openIAT,2020.1.0rc3,MacIntel,60,l,1,0.7296,,,,,,,,0.7296,1,0,14,14,5,1,stimuli/white_3.jpg,,l,,,,,,,,
,,,,,,,,,,,,k,1,001,male,2021-11-24_14h56.16.946,openIAT,2020.1.0rc3,MacIntel,60,a,1,0.5784,,,,,,,,0.5784,1,0,15,15,2,1,stimuli/black_2.jpg,,a,,,,,,,,
,,,,,,,,,,,,k,1,001,male,2021-11-24_14h56.16.946,openIAT,2020.1.0rc3,MacIntel,60,l,1,1.0132,,,,,,,,1.0132,1,0,16,16,15,1,stimuli/blank.png,Agony,l,,,,,,,,
,,,,,,,,,,,,k,1,001,male,2021-11-24_14h56.16.946,openIAT,2020.1.0rc3,MacIntel,60,l,1,0.5626,,,,,,,,0.5626,1,0,17,17,13,1,stimuli/blank.png,Hurt,l,,,,,,,,
,,,,,,,,,,,,k,1,001,male,2021-11-24_14h56.16.946,openIAT,2020.1.0rc3,MacIntel,60,l,1,2.5441,,,,,,,,2.5441,1,0,18,18,1,1,stimuli/white_1.jpg,,l,,,,,,,,
,,,,,,,,,,,,k,1,001,male,2021-11-24_14h56.16.946,openIAT,2020.1.0rc3,MacIntel,60,l,1,0.6787,,,,,,,,0.6787,1,0,19,19,9,1,stimuli/white_5.jpg,,l,,,,,,,,
