instr_done_touch.x,instr_done_touch.y,instr_done_touch.leftButton,instr_done_touch.midButton,instr_done_touch.rightButton,instr_done_touch.clicked_name,instruct_pages.thisRepN,instruct_pages.thisTrialN,instruct_pages.thisN,instruct_pages.thisIndex,instruct_pages.ran,pageN,instruct_text,participant,order,session,gender,date,expName,psychopyVersion,OS,frameRate,key_resp.keys,key_resp.corr,key_resp.rt,touch_resp.x,touch_resp.y,touch_resp.leftButton,touch_resp.midButton,touch_resp.rightButton,touch_resp.time,touch_resp.clicked_name,rt,corr,trials.thisRepN,trials.thisTrialN,trials.thisN,trials.thisIndex,trials.ran,stimImage,stimWord,CorrAns,blocks.thisRepN,blocks.thisTrialN,blocks.thisN,blocks.thisIndex,blocks.ran,conds_file,label_left,label_right
0.040000025,-0.381666692,1,0,0,instr_done_button,0,0,0,0,1,1,"You will be presented with words or images to classify into categories using either the 'A' or 'L' key. 
 
Try to go as fast as possible while making as few mistakes as possible. 
",Katerina,1,001,female,2023-01-06_12h53.45.835,openIAT,2020.1.0rc3,Win32,60,,,,,,,,,,,,,,,,,,,,,,,,,,,,
-0.015833346,-0.404166667,1,0,0,instr_done_button,0,1,1,1,1,2,"Keep in mind: 
 
1) Labels at the top of the screen indicate which catogory goes with which key. 
 
2) Each word or image has a correct catogory classification 
 
3) Keep your index fingers on the A and L keys to enable a rapid response. 
 
4) The test gives no results if you go slow- please try to go as fast as possible 
",Katerina,1,001,female,2023-01-06_12h53.45.835,openIAT,2020.1.0rc3,Win32,60,,,,,,,,,,,,,,,,,,,,,,,,,,,,
,,,,,,,,,,,,,Katerina,1,001,female,2023-01-06_12h53.45.835,openIAT,2020.1.0rc3,Win32,60,l,1,0.8868,,,,,,,,0.8868,1,0,0,0,3,1,stimuli/blank.png,Hurt,l,,,,,,,,
,,,,,,,,,,,,,Katerina,1,001,female,2023-01-06_12h53.45.835,openIAT,2020.1.0rc3,Win32,60,a,1,0.5357,,,,,,,,0.5357,1,0,1,1,0,1,stimuli/blank.png,Good,a,,,,,,,,
,,,,,,,,,,,,,Katerina,1,001,female,2023-01-06_12h53.45.835,openIAT,2020.1.0rc3,Win32,60,a,1,0.4737,,,,,,,,0.4737,1,0,2,2,4,1,stimuli/blank.png,Pleasure,a,,,,,,,,
,,,,,,,,,,,,,Katerina,1,001,female,2023-01-06_12h53.45.835,openIAT,2020.1.0rc3,Win32,60,a,0,0.3456,,,,,,,,0.3456,0,0,3,3,5,1,stimuli/blank.png,Agony,l,,,,,,,,
,,,,,,,,,,,,,Katerina,1,001,female,2023-01-06_12h53.45.835,openIAT,2020.1.0rc3,Win32,60,a,1,0.6364,,,,,,,,0.6364,1,0,4,4,6,1,stimuli/blank.png,Love,a,,,,,,,,
,,,,,,,,,,,,,Katerina,1,001,female,2023-01-06_12h53.45.835,openIAT,2020.1.0rc3,Win32,60,l,1,0.4607,,,,,,,,0.4607,1,0,5,5,7,1,stimuli/blank.png,Evil,l,,,,,,,,
,,,,,,,,,,,,,Katerina,1,001,female,2023-01-06_12h53.45.835,openIAT,2020.1.0rc3,Win32,60,a,0,0.4173,,,,,,,,0.4173,0,0,6,6,9,1,stimuli/blank.png,Nasty,l,,,,,,,,
,,,,,,,,,,,,,Katerina,1,001,female,2023-01-06_12h53.45.835,openIAT,2020.1.0rc3,Win32,60,a,1,0.5503,,,,,,,,0.5503,1,0,7,7,2,1,stimuli/blank.png,Happy,a,,,,,,,,
,,,,,,,,,,,,,Katerina,1,001,female,2023-01-06_12h53.45.835,openIAT,2020.1.0rc3,Win32,60,l,1,0.4776,,,,,,,,0.4776,1,0,8,8,1,1,stimuli/blank.png,Bad,l,,,,,,,,
,,,,,,,,,,,,,Katerina,1,001,female,2023-01-06_12h53.45.835,openIAT,2020.1.0rc3,Win32,60,a,1,0.5518,,,,,,,,0.5518,1,0,9,9,8,1,stimuli/blank.png,Joy,a,,,,,,,,
,,,,,,,,,,,,,Katerina,1,001,female,2023-01-06_12h53.45.835,openIAT,2020.1.0rc3,Win32,60,,,,,,,,,,,,,,,,,,,,,0,0,0,0,1,pos_neg_train.xlsx,"A = 
Positive","L = 
Negative"
,,,,,,,,,,,,,Katerina,1,001,female,2023-01-06_12h53.45.835,openIAT,2020.1.0rc3,Win32,60,l,1,0.9543,,,,,,,,0.9543,1,0,0,0,0,1,stimuli/black_1.jpg,NaN,l,,,,,,,,
,,,,,,,,,,,,,Katerina,1,001,female,2023-01-06_12h53.45.835,openIAT,2020.1.0rc3,Win32,60,l,0,1.1163,,,,,,,,1.1163,0,0,1,1,1,1,stimuli/white_1.jpg,NaN,a,,,,,,,,
,,,,,,,,,,,,,Katerina,1,001,female,2023-01-06_12h53.45.835,openIAT,2020.1.0rc3,Win32,60,l,1,1.752,,,,,,,,1.752,1,0,2,2,6,1,stimuli/black_4.jpg,NaN,l,,,,,,,,
,,,,,,,,,,,,,Katerina,1,001,female,2023-01-06_12h53.45.835,openIAT,2020.1.0rc3,Win32,60,a,1,0.7669,,,,,,,,0.7669,1,0,3,3,3,1,stimuli/white_2.jpg,NaN,a,,,,,,,,
,,,,,,,,,,,,,Katerina,1,001,female,2023-01-06_12h53.45.835,openIAT,2020.1.0rc3,Win32,60,a,1,0.9463,,,,,,,,0.9463,1,0,4,4,9,1,stimuli/white_5.jpg,NaN,a,,,,,,,,
,,,,,,,,,,,,,Katerina,1,001,female,2023-01-06_12h53.45.835,openIAT,2020.1.0rc3,Win32,60,l,1,0.8774,,,,,,,,0.8774,1,0,5,5,2,1,stimuli/black_2.jpg,NaN,l,,,,,,,,
,,,,,,,,,,,,,Katerina,1,001,female,2023-01-06_12h53.45.835,openIAT,2020.1.0rc3,Win32,60,l,1,1.2672,,,,,,,,1.2672,1,0,6,6,4,1,stimuli/black_3.jpg,NaN,l,,,,,,,,
,,,,,,,,,,,,,Katerina,1,001,female,2023-01-06_12h53.45.835,openIAT,2020.1.0rc3,Win32,60,l,0,1.0281,,,,,,,,1.0281,0,0,7,7,7,1,stimuli/white_4.jpg,NaN,a,,,,,,,,
