instr_done_touch.x,instr_done_touch.y,instr_done_touch.leftButton,instr_done_touch.midButton,instr_done_touch.rightButton,instr_done_touch.clicked_name,instruct_pages.thisRepN,instruct_pages.thisTrialN,instruct_pages.thisN,instruct_pages.thisIndex,instruct_pages.ran,pageN,instruct_text,participant,order,session,gender,date,expName,psychopyVersion,OS,frameRate,key_resp.keys,key_resp.corr,key_resp.rt,touch_resp.x,touch_resp.y,touch_resp.leftButton,touch_resp.midButton,touch_resp.rightButton,touch_resp.time,touch_resp.clicked_name,rt,corr,trials.thisRepN,trials.thisTrialN,trials.thisN,trials.thisIndex,trials.ran,stimImage,stimWord,CorrAns,blocks.thisRepN,blocks.thisTrialN,blocks.thisN,blocks.thisIndex,blocks.ran,conds_file,label_left,label_right
0.151041667,-0.364583333,1,0,0,instr_done_button,0,0,0,0,1,1,"You will be presented with words or images to classify into categories using either the 'A' or 'L' key. 
 
Try to go as fast as possible while making as few mistakes as possible. 
",Katrin,1,001,male,2022-12-21_09h24.56.948,openIAT,2020.1.0rc3,Win32,60,,,,,,,,,,,,,,,,,,,,,,,,,,,,
0.139322917,-0.399739583,1,0,0,instr_done_button,0,1,1,1,1,2,"Keep in mind: 
 
1) Labels at the top of the screen indicate which catogory goes with which key. 
 
2) Each word or image has a correct catogory classification 
 
3) Keep your index fingers on the A and L keys to enable a rapid response. 
 
4) The test gives no results if you go slow- please try to go as fast as possible 
",Katrin,1,001,male,2022-12-21_09h24.56.948,openIAT,2020.1.0rc3,Win32,60,,,,,,,,,,,,,,,,,,,,,,,,,,,,
,,,,,,,,,,,,,Katrin,1,001,male,2022-12-21_09h24.56.948,openIAT,2020.1.0rc3,Win32,60,a,1,1.0368,,,,,,,,1.0368,1,0,0,0,8,1,stimuli/blank.png,Joy,a,,,,,,,,
,,,,,,,,,,,,,Katrin,1,001,male,2022-12-21_09h24.56.948,openIAT,2020.1.0rc3,Win32,60,l,1,1.1534,,,,,,,,1.1534,1,0,1,1,7,1,stimuli/blank.png,Evil,l,,,,,,,,
,,,,,,,,,,,,,Katrin,1,001,male,2022-12-21_09h24.56.948,openIAT,2020.1.0rc3,Win32,60,a,1,0.9255,,,,,,,,0.9255,1,0,2,2,6,1,stimuli/blank.png,Love,a,,,,,,,,
,,,,,,,,,,,,,Katrin,1,001,male,2022-12-21_09h24.56.948,openIAT,2020.1.0rc3,Win32,60,a,1,0.9482,,,,,,,,0.9482,1,0,3,3,0,1,stimuli/blank.png,Good,a,,,,,,,,
,,,,,,,,,,,,,Katrin,1,001,male,2022-12-21_09h24.56.948,openIAT,2020.1.0rc3,Win32,60,a,1,0.5702,,,,,,,,0.5702,1,0,4,4,2,1,stimuli/blank.png,Happy,a,,,,,,,,
,,,,,,,,,,,,,Katrin,1,001,male,2022-12-21_09h24.56.948,openIAT,2020.1.0rc3,Win32,60,l,1,0.6703,,,,,,,,0.6703,1,0,5,5,9,1,stimuli/blank.png,Nasty,l,,,,,,,,
,,,,,,,,,,,,,Katrin,1,001,male,2022-12-21_09h24.56.948,openIAT,2020.1.0rc3,Win32,60,l,1,0.6064,,,,,,,,0.6064,1,0,6,6,1,1,stimuli/blank.png,Bad,l,,,,,,,,
,,,,,,,,,,,,,Katrin,1,001,male,2022-12-21_09h24.56.948,openIAT,2020.1.0rc3,Win32,60,a,1,0.6326,,,,,,,,0.6326,1,0,7,7,4,1,stimuli/blank.png,Pleasure,a,,,,,,,,
,,,,,,,,,,,,,Katrin,1,001,male,2022-12-21_09h24.56.948,openIAT,2020.1.0rc3,Win32,60,l,1,0.6518,,,,,,,,0.6518,1,0,8,8,3,1,stimuli/blank.png,Hurt,l,,,,,,,,
,,,,,,,,,,,,,Katrin,1,001,male,2022-12-21_09h24.56.948,openIAT,2020.1.0rc3,Win32,60,l,1,0.6749,,,,,,,,0.6749,1,0,9,9,5,1,stimuli/blank.png,Agony,l,,,,,,,,
,,,,,,,,,,,,,Katrin,1,001,male,2022-12-21_09h24.56.948,openIAT,2020.1.0rc3,Win32,60,,,,,,,,,,,,,,,,,,,,,0,0,0,0,1,pos_neg_train.xlsx,"A = 
Positive","L = 
Negative"
,,,,,,,,,,,,,Katrin,1,001,male,2022-12-21_09h24.56.948,openIAT,2020.1.0rc3,Win32,60,l,1,4.308,,,,,,,,4.308,1,0,0,0,6,1,stimuli/black_4.jpg,NaN,l,,,,,,,,
,,,,,,,,,,,,,Katrin,1,001,male,2022-12-21_09h24.56.948,openIAT,2020.1.0rc3,Win32,60,l,1,1.099,,,,,,,,1.099,1,0,1,1,2,1,stimuli/black_2.jpg,NaN,l,,,,,,,,
,,,,,,,,,,,,,Katrin,1,001,male,2022-12-21_09h24.56.948,openIAT,2020.1.0rc3,Win32,60,a,1,0.6886,,,,,,,,0.6886,1,0,2,2,7,1,stimuli/white_4.jpg,NaN,a,,,,,,,,
,,,,,,,,,,,,,Katrin,1,001,male,2022-12-21_09h24.56.948,openIAT,2020.1.0rc3,Win32,60,a,1,0.6445,,,,,,,,0.6445,1,0,3,3,3,1,stimuli/white_2.jpg,NaN,a,,,,,,,,
,,,,,,,,,,,,,Katrin,1,001,male,2022-12-21_09h24.56.948,openIAT,2020.1.0rc3,Win32,60,a,1,0.5824,,,,,,,,0.5824,1,0,4,4,1,1,stimuli/white_1.jpg,NaN,a,,,,,,,,
,,,,,,,,,,,,,Katrin,1,001,male,2022-12-21_09h24.56.948,openIAT,2020.1.0rc3,Win32,60,a,1,0.5998,,,,,,,,0.5998,1,0,5,5,9,1,stimuli/white_5.jpg,NaN,a,,,,,,,,
,,,,,,,,,,,,,Katrin,1,001,male,2022-12-21_09h24.56.948,openIAT,2020.1.0rc3,Win32,60,l,1,0.7521,,,,,,,,0.7521,1,0,6,6,4,1,stimuli/black_3.jpg,NaN,l,,,,,,,,
,,,,,,,,,,,,,Katrin,1,001,male,2022-12-21_09h24.56.948,openIAT,2020.1.0rc3,Win32,60,l,1,0.6001,,,,,,,,0.6001,1,0,7,7,8,1,stimuli/black_5.jpg,NaN,l,,,,,,,,
,,,,,,,,,,,,,Katrin,1,001,male,2022-12-21_09h24.56.948,openIAT,2020.1.0rc3,Win32,60,a,1,0.56,,,,,,,,0.56,1,0,8,8,5,1,stimuli/white_3.jpg,NaN,a,,,,,,,,
,,,,,,,,,,,,,Katrin,1,001,male,2022-12-21_09h24.56.948,openIAT,2020.1.0rc3,Win32,60,l,1,0.7774,,,,,,,,0.7774,1,0,9,9,0,1,stimuli/black_1.jpg,NaN,l,,,,,,,,
,,,,,,,,,,,,,Katrin,1,001,male,2022-12-21_09h24.56.948,openIAT,2020.1.0rc3,Win32,60,,,,,,,,,,,,,,,,,,,,,0,1,1,1,1,cong_train.xlsx,"A = 
White","L = 
Black"
,,,,,,,,,,,,,Katrin,1,001,male,2022-12-21_09h24.56.948,openIAT,2020.1.0rc3,Win32,60,a,1,0.7851,,,,,,,,0.7851,1,0,0,0,14,1,stimuli/blank.png,Pleasure,a,,,,,,,,
,,,,,,,,,,,,,Katrin,1,001,male,2022-12-21_09h24.56.948,openIAT,2020.1.0rc3,Win32,60,l,1,0.8154,,,,,,,,0.8154,1,0,1,1,4,1,stimuli/black_3.jpg,NaN,l,,,,,,,,
,,,,,,,,,,,,,Katrin,1,001,male,2022-12-21_09h24.56.948,openIAT,2020.1.0rc3,Win32,60,a,1,0.7707,,,,,,,,0.7707,1,0,2,2,12,1,stimuli/blank.png,Happy,a,,,,,,,,
,,,,,,,,,,,,,Katrin,1,001,male,2022-12-21_09h24.56.948,openIAT,2020.1.0rc3,Win32,60,l,1,0.6438,,,,,,,,0.6438,1,0,3,3,6,1,stimuli/black_4.jpg,NaN,l,,,,,,,,
,,,,,,,,,,,,,Katrin,1,001,male,2022-12-21_09h24.56.948,openIAT,2020.1.0rc3,Win32,60,a,1,0.9481,,,,,,,,0.9481,1,0,4,4,1,1,stimuli/white_1.jpg,NaN,a,,,,,,,,
,,,,,,,,,,,,,Katrin,1,001,male,2022-12-21_09h24.56.948,openIAT,2020.1.0rc3,Win32,60,a,1,0.9174,,,,,,,,0.9174,1,0,5,5,18,1,stimuli/blank.png,Joy,a,,,,,,,,
,,,,,,,,,,,,,Katrin,1,001,male,2022-12-21_09h24.56.948,openIAT,2020.1.0rc3,Win32,60,l,1,0.6524,,,,,,,,0.6524,1,0,6,6,8,1,stimuli/black_5.jpg,NaN,l,,,,,,,,
,,,,,,,,,,,,,Katrin,1,001,male,2022-12-21_09h24.56.948,openIAT,2020.1.0rc3,Win32,60,a,1,0.6333,,,,,,,,0.6333,1,0,7,7,5,1,stimuli/white_3.jpg,NaN,a,,,,,,,,
,,,,,,,,,,,,,Katrin,1,001,male,2022-12-21_09h24.56.948,openIAT,2020.1.0rc3,Win32,60,a,1,0.8158,,,,,,,,0.8158,1,0,8,8,10,1,stimuli/blank.png,Good,a,,,,,,,,
,,,,,,,,,,,,,Katrin,1,001,male,2022-12-21_09h24.56.948,openIAT,2020.1.0rc3,Win32,60,a,1,0.725,,,,,,,,0.725,1,0,9,9,9,1,stimuli/white_5.jpg,NaN,a,,,,,,,,
,,,,,,,,,,,,,Katrin,1,001,male,2022-12-21_09h24.56.948,openIAT,2020.1.0rc3,Win32,60,l,1,0.7655,,,,,,,,0.7655,1,0,10,10,15,1,stimuli/blank.png,Agony,l,,,,,,,,
,,,,,,,,,,,,,Katrin,1,001,male,2022-12-21_09h24.56.948,openIAT,2020.1.0rc3,Win32,60,l,1,0.5525,,,,,,,,0.5525,1,0,11,11,17,1,stimuli/blank.png,Evil,l,,,,,,,,
,,,,,,,,,,,,,Katrin,1,001,male,2022-12-21_09h24.56.948,openIAT,2020.1.0rc3,Win32,60,l,1,0.7193,,,,,,,,0.7193,1,0,12,12,19,1,stimuli/blank.png,Nasty,l,,,,,,,,
,,,,,,,,,,,,,Katrin,1,001,male,2022-12-21_09h24.56.948,openIAT,2020.1.0rc3,Win32,60,l,1,0.6697,,,,,,,,0.6697,1,0,13,13,2,1,stimuli/black_2.jpg,NaN,l,,,,,,,,
,,,,,,,,,,,,,Katrin,1,001,male,2022-12-21_09h24.56.948,openIAT,2020.1.0rc3,Win32,60,l,1,0.6258,,,,,,,,0.6258,1,0,14,14,0,1,stimuli/black_1.jpg,NaN,l,,,,,,,,
,,,,,,,,,,,,,Katrin,1,001,male,2022-12-21_09h24.56.948,openIAT,2020.1.0rc3,Win32,60,a,1,0.6826,,,,,,,,0.6826,1,0,15,15,3,1,stimuli/white_2.jpg,NaN,a,,,,,,,,
,,,,,,,,,,,,,Katrin,1,001,male,2022-12-21_09h24.56.948,openIAT,2020.1.0rc3,Win32,60,a,1,0.7492,,,,,,,,0.7492,1,0,16,16,16,1,stimuli/blank.png,Love,a,,,,,,,,
,,,,,,,,,,,,,Katrin,1,001,male,2022-12-21_09h24.56.948,openIAT,2020.1.0rc3,Win32,60,l,1,0.6941,,,,,,,,0.6941,1,0,17,17,13,1,stimuli/blank.png,Hurt,l,,,,,,,,
,,,,,,,,,,,,,Katrin,1,001,male,2022-12-21_09h24.56.948,openIAT,2020.1.0rc3,Win32,60,l,1,0.703,,,,,,,,0.703,1,0,18,18,11,1,stimuli/blank.png,Bad,l,,,,,,,,
,,,,,,,,,,,,,Katrin,1,001,male,2022-12-21_09h24.56.948,openIAT,2020.1.0rc3,Win32,60,a,1,2.0656,,,,,,,,2.0656,1,0,19,19,7,1,stimuli/white_4.jpg,NaN,a,,,,,,,,
,,,,,,,,,,,,,Katrin,1,001,male,2022-12-21_09h24.56.948,openIAT,2020.1.0rc3,Win32,60,,,,,,,,,,,,,,,,,,,,,0,2,2,2,1,cong_test.xlsx,"A = 
White or 
Positive","L = 
Black or 
Negative"
,,,,,,,,,,,,,Katrin,1,001,male,2022-12-21_09h24.56.948,openIAT,2020.1.0rc3,Win32,60,l,1,1.0196,,,,,,,,1.0196,1,0,0,0,3,1,stimuli/white_2.jpg,,l,,,,,,,,
,,,,,,,,,,,,,Katrin,1,001,male,2022-12-21_09h24.56.948,openIAT,2020.1.0rc3,Win32,60,l,1,0.6827,,,,,,,,0.6827,1,0,1,1,1,1,stimuli/white_1.jpg,,l,,,,,,,,
,,,,,,,,,,,,,Katrin,1,001,male,2022-12-21_09h24.56.948,openIAT,2020.1.0rc3,Win32,60,a,1,0.6826,,,,,,,,0.6826,1,0,2,2,0,1,stimuli/black_1.jpg,,a,,,,,,,,
,,,,,,,,,,,,,Katrin,1,001,male,2022-12-21_09h24.56.948,openIAT,2020.1.0rc3,Win32,60,l,1,0.9823,,,,,,,,0.9823,1,0,3,3,7,1,stimuli/white_4.jpg,,l,,,,,,,,
,,,,,,,,,,,,,Katrin,1,001,male,2022-12-21_09h24.56.948,openIAT,2020.1.0rc3,Win32,60,a,1,1.118,,,,,,,,1.118,1,0,4,4,6,1,stimuli/black_4.jpg,,a,,,,,,,,
,,,,,,,,,,,,,Katrin,1,001,male,2022-12-21_09h24.56.948,openIAT,2020.1.0rc3,Win32,60,a,1,0.8216,,,,,,,,0.8216,1,0,5,5,2,1,stimuli/black_2.jpg,,a,,,,,,,,
,,,,,,,,,,,,,Katrin,1,001,male,2022-12-21_09h24.56.948,openIAT,2020.1.0rc3,Win32,60,l,1,0.8491,,,,,,,,0.8491,1,0,6,6,9,1,stimuli/white_5.jpg,,l,,,,,,,,
,,,,,,,,,,,,,Katrin,1,001,male,2022-12-21_09h24.56.948,openIAT,2020.1.0rc3,Win32,60,l,1,0.7273,,,,,,,,0.7273,1,0,7,7,5,1,stimuli/white_3.jpg,,l,,,,,,,,
,,,,,,,,,,,,,Katrin,1,001,male,2022-12-21_09h24.56.948,openIAT,2020.1.0rc3,Win32,60,a,1,0.8825,,,,,,,,0.8825,1,0,8,8,4,1,stimuli/black_3.jpg,,a,,,,,,,,
,,,,,,,,,,,,,Katrin,1,001,male,2022-12-21_09h24.56.948,openIAT,2020.1.0rc3,Win32,60,a,1,0.6993,,,,,,,,0.6993,1,0,9,9,8,1,stimuli/black_5.jpg,,a,,,,,,,,
,,,,,,,,,,,,,Katrin,1,001,male,2022-12-21_09h24.56.948,openIAT,2020.1.0rc3,Win32,60,,,,,,,,,,,,,,,,,,,,,0,3,3,3,1,incong_train.xlsx,"A = 
Black","L = 
White"
,,,,,,,,,,,,,Katrin,1,001,male,2022-12-21_09h24.56.948,openIAT,2020.1.0rc3,Win32,60,a,1,1.2203,,,,,,,,1.2203,1,0,0,0,6,1,stimuli/black_4.jpg,,a,,,,,,,,
,,,,,,,,,,,,,Katrin,1,001,male,2022-12-21_09h24.56.948,openIAT,2020.1.0rc3,Win32,60,a,1,0.7937,,,,,,,,0.7937,1,0,1,1,8,1,stimuli/black_5.jpg,,a,,,,,,,,
,,,,,,,,,,,,,Katrin,1,001,male,2022-12-21_09h24.56.948,openIAT,2020.1.0rc3,Win32,60,a,1,2.4271,,,,,,,,2.4271,1,0,2,2,0,1,stimuli/black_1.jpg,,a,,,,,,,,
,,,,,,,,,,,,,Katrin,1,001,male,2022-12-21_09h24.56.948,openIAT,2020.1.0rc3,Win32,60,a,1,0.6722,,,,,,,,0.6722,1,0,3,3,10,1,stimuli/blank.png,Good,a,,,,,,,,
,,,,,,,,,,,,,Katrin,1,001,male,2022-12-21_09h24.56.948,openIAT,2020.1.0rc3,Win32,60,l,1,1.1004,,,,,,,,1.1004,1,0,4,4,9,1,stimuli/white_5.jpg,,l,,,,,,,,
,,,,,,,,,,,,,Katrin,1,001,male,2022-12-21_09h24.56.948,openIAT,2020.1.0rc3,Win32,60,a,1,0.6736,,,,,,,,0.6736,1,0,5,5,2,1,stimuli/black_2.jpg,,a,,,,,,,,
,,,,,,,,,,,,,Katrin,1,001,male,2022-12-21_09h24.56.948,openIAT,2020.1.0rc3,Win32,60,l,1,0.8847,,,,,,,,0.8847,1,0,6,6,19,1,stimuli/blank.png,Nasty,l,,,,,,,,
,,,,,,,,,,,,,Katrin,1,001,male,2022-12-21_09h24.56.948,openIAT,2020.1.0rc3,Win32,60,l,1,1.069,,,,,,,,1.069,1,0,7,7,7,1,stimuli/white_4.jpg,,l,,,,,,,,
,,,,,,,,,,,,,Katrin,1,001,male,2022-12-21_09h24.56.948,openIAT,2020.1.0rc3,Win32,60,l,1,0.8487,,,,,,,,0.8487,1,0,8,8,3,1,stimuli/white_2.jpg,,l,,,,,,,,
,,,,,,,,,,,,,Katrin,1,001,male,2022-12-21_09h24.56.948,openIAT,2020.1.0rc3,Win32,60,a,1,0.6392,,,,,,,,0.6392,1,0,9,9,12,1,stimuli/blank.png,Happy,a,,,,,,,,
,,,,,,,,,,,,,Katrin,1,001,male,2022-12-21_09h24.56.948,openIAT,2020.1.0rc3,Win32,60,a,1,0.619,,,,,,,,0.619,1,0,10,10,16,1,stimuli/blank.png,Love,a,,,,,,,,
,,,,,,,,,,,,,Katrin,1,001,male,2022-12-21_09h24.56.948,openIAT,2020.1.0rc3,Win32,60,a,0,2.1634,,,,,,,,2.1634,0,0,11,11,5,1,stimuli/white_3.jpg,,l,,,,,,,,
,,,,,,,,,,,,,Katrin,1,001,male,2022-12-21_09h24.56.948,openIAT,2020.1.0rc3,Win32,60,a,1,1.9585,,,,,,,,1.9585,1,0,12,12,4,1,stimuli/black_3.jpg,,a,,,,,,,,
,,,,,,,,,,,,,Katrin,1,001,male,2022-12-21_09h24.56.948,openIAT,2020.1.0rc3,Win32,60,l,1,0.835,,,,,,,,0.835,1,0,13,13,15,1,stimuli/blank.png,Agony,l,,,,,,,,
,,,,,,,,,,,,,Katrin,1,001,male,2022-12-21_09h24.56.948,openIAT,2020.1.0rc3,Win32,60,l,0,0.9657,,,,,,,,0.9657,0,0,14,14,18,1,stimuli/blank.png,Joy,a,,,,,,,,
,,,,,,,,,,,,,Katrin,1,001,male,2022-12-21_09h24.56.948,openIAT,2020.1.0rc3,Win32,60,l,1,1.8804,,,,,,,,1.8804,1,0,15,15,11,1,stimuli/blank.png,Bad,l,,,,,,,,
,,,,,,,,,,,,,Katrin,1,001,male,2022-12-21_09h24.56.948,openIAT,2020.1.0rc3,Win32,60,l,1,0.9819,,,,,,,,0.9819,1,0,16,16,13,1,stimuli/blank.png,Hurt,l,,,,,,,,
,,,,,,,,,,,,,Katrin,1,001,male,2022-12-21_09h24.56.948,openIAT,2020.1.0rc3,Win32,60,l,1,1.7753,,,,,,,,1.7753,1,0,17,17,1,1,stimuli/white_1.jpg,,l,,,,,,,,
,,,,,,,,,,,,,Katrin,1,001,male,2022-12-21_09h24.56.948,openIAT,2020.1.0rc3,Win32,60,l,1,1.478,,,,,,,,1.478,1,0,18,18,17,1,stimuli/blank.png,Evil,l,,,,,,,,
,,,,,,,,,,,,,Katrin,1,001,male,2022-12-21_09h24.56.948,openIAT,2020.1.0rc3,Win32,60,a,1,0.6741,,,,,,,,0.6741,1,0,19,19,14,1,stimuli/blank.png,Pleasure,a,,,,,,,,
