instr_done_touch.x,instr_done_touch.y,instr_done_touch.leftButton,instr_done_touch.midButton,instr_done_touch.rightButton,instruct_pages.thisRepN,instruct_pages.thisTrialN,instruct_pages.thisN,instruct_pages.thisIndex,instruct_pages.ran,pageN,instruct_text,participant,order,session,gender,date,expName,psychopyVersion,OS,frameRate,key_resp.keys,key_resp.corr,key_resp.rt,touch_resp.x,touch_resp.y,touch_resp.leftButton,touch_resp.midButton,touch_resp.rightButton,touch_resp.time,touch_resp.clicked_name,rt,corr,trials.thisRepN,trials.thisTrialN,trials.thisN,trials.thisIndex,trials.ran,stimImage,stimWord,CorrAns,blocks.thisRepN,blocks.thisTrialN,blocks.thisN,blocks.thisIndex,blocks.ran,conds_file,label_left,label_right
0.464814843,0.065277778,0,0,0,0,0,0,0,1,1,"You will be presented with words or images to classify into categories using either the 'A' or 'L' key. 
 
Try to go as fast as possible while making as few mistakes as possible. 
",kawakami,2,001,female,2022-09-25_19h31.28.006,openIAT,2020.1.0rc3,Win32,60,,,,,,,,,,,,,,,,,,,,,,,,,,,,
0.464814843,0.065277778,0,0,0,0,1,1,1,1,2,"Keep in mind: 
 
1) Labels at the top of the screen indicate which catogory goes with which key. 
 
2) Each word or image has a correct catogory classification 
 
3) Keep your index fingers on the A and L keys to enable a rapid response. 
 
4) The test gives no results if you go slow- please try to go as fast as possible 
",kawakami,2,001,female,2022-09-25_19h31.28.006,openIAT,2020.1.0rc3,Win32,60,,,,,,,,,,,,,,,,,,,,,,,,,,,,
,,,,,,,,,,,,kawakami,2,001,female,2022-09-25_19h31.28.006,openIAT,2020.1.0rc3,Win32,60,l,1,1.5465,,,,,,,,1.5465,1,0,0,0,9,1,stimuli/blank.png,Nasty,l,,,,,,,,
,,,,,,,,,,,,kawakami,2,001,female,2022-09-25_19h31.28.006,openIAT,2020.1.0rc3,Win32,60,a,1,1.2604,,,,,,,,1.2604,1,0,1,1,4,1,stimuli/blank.png,Pleasure,a,,,,,,,,
,,,,,,,,,,,,kawakami,2,001,female,2022-09-25_19h31.28.006,openIAT,2020.1.0rc3,Win32,60,l,1,0.7037,,,,,,,,0.7037,1,0,2,2,5,1,stimuli/blank.png,Agony,l,,,,,,,,
,,,,,,,,,,,,kawakami,2,001,female,2022-09-25_19h31.28.006,openIAT,2020.1.0rc3,Win32,60,a,0,0.5518,,,,,,,,0.5518,0,0,3,3,1,1,stimuli/blank.png,Bad,l,,,,,,,,
,,,,,,,,,,,,kawakami,2,001,female,2022-09-25_19h31.28.006,openIAT,2020.1.0rc3,Win32,60,l,0,0.7727,,,,,,,,0.7727,0,0,4,4,6,1,stimuli/blank.png,Love,a,,,,,,,,
,,,,,,,,,,,,kawakami,2,001,female,2022-09-25_19h31.28.006,openIAT,2020.1.0rc3,Win32,60,a,1,1.3347,,,,,,,,1.3347,1,0,5,5,2,1,stimuli/blank.png,Happy,a,,,,,,,,
,,,,,,,,,,,,kawakami,2,001,female,2022-09-25_19h31.28.006,openIAT,2020.1.0rc3,Win32,60,l,1,0.7655,,,,,,,,0.7655,1,0,6,6,3,1,stimuli/blank.png,Hurt,l,,,,,,,,
,,,,,,,,,,,,kawakami,2,001,female,2022-09-25_19h31.28.006,openIAT,2020.1.0rc3,Win32,60,a,1,0.6167,,,,,,,,0.6167,1,0,7,7,0,1,stimuli/blank.png,Good,a,,,,,,,,
,,,,,,,,,,,,kawakami,2,001,female,2022-09-25_19h31.28.006,openIAT,2020.1.0rc3,Win32,60,l,1,0.685,,,,,,,,0.685,1,0,8,8,7,1,stimuli/blank.png,Evil,l,,,,,,,,
,,,,,,,,,,,,kawakami,2,001,female,2022-09-25_19h31.28.006,openIAT,2020.1.0rc3,Win32,60,a,1,0.7619,,,,,,,,0.7619,1,0,9,9,8,1,stimuli/blank.png,Joy,a,,,,,,,,
,,,,,,,,,,,,kawakami,2,001,female,2022-09-25_19h31.28.006,openIAT,2020.1.0rc3,Win32,60,,,,,,,,,,,,,,,,,,,,,0,0,0,0,1,pos_neg_train.xlsx,"A = 
Positive","L = 
Negative"
,,,,,,,,,,,,kawakami,2,001,female,2022-09-25_19h31.28.006,openIAT,2020.1.0rc3,Win32,60,l,1,2.7813,,,,,,,,2.7813,1,0,0,0,1,1,stimuli/white_1.jpg,,l,,,,,,,,
,,,,,,,,,,,,kawakami,2,001,female,2022-09-25_19h31.28.006,openIAT,2020.1.0rc3,Win32,60,a,1,0.7677,,,,,,,,0.7677,1,0,1,1,2,1,stimuli/black_2.jpg,,a,,,,,,,,
,,,,,,,,,,,,kawakami,2,001,female,2022-09-25_19h31.28.006,openIAT,2020.1.0rc3,Win32,60,l,1,0.785,,,,,,,,0.785,1,0,2,2,3,1,stimuli/white_2.jpg,,l,,,,,,,,
,,,,,,,,,,,,kawakami,2,001,female,2022-09-25_19h31.28.006,openIAT,2020.1.0rc3,Win32,60,l,1,0.65,,,,,,,,0.65,1,0,3,3,9,1,stimuli/white_5.jpg,,l,,,,,,,,
,,,,,,,,,,,,kawakami,2,001,female,2022-09-25_19h31.28.006,openIAT,2020.1.0rc3,Win32,60,a,1,0.8023,,,,,,,,0.8023,1,0,4,4,4,1,stimuli/black_3.jpg,,a,,,,,,,,
,,,,,,,,,,,,kawakami,2,001,female,2022-09-25_19h31.28.006,openIAT,2020.1.0rc3,Win32,60,a,1,0.4797,,,,,,,,0.4797,1,0,5,5,6,1,stimuli/black_4.jpg,,a,,,,,,,,
,,,,,,,,,,,,kawakami,2,001,female,2022-09-25_19h31.28.006,openIAT,2020.1.0rc3,Win32,60,a,1,0.4485,,,,,,,,0.4485,1,0,6,6,8,1,stimuli/black_5.jpg,,a,,,,,,,,
,,,,,,,,,,,,kawakami,2,001,female,2022-09-25_19h31.28.006,openIAT,2020.1.0rc3,Win32,60,l,1,0.6622,,,,,,,,0.6622,1,0,7,7,7,1,stimuli/white_4.jpg,,l,,,,,,,,
,,,,,,,,,,,,kawakami,2,001,female,2022-09-25_19h31.28.006,openIAT,2020.1.0rc3,Win32,60,l,1,0.6341,,,,,,,,0.6341,1,0,8,8,5,1,stimuli/white_3.jpg,,l,,,,,,,,
,,,,,,,,,,,,kawakami,2,001,female,2022-09-25_19h31.28.006,openIAT,2020.1.0rc3,Win32,60,a,1,0.6797,,,,,,,,0.6797,1,0,9,9,0,1,stimuli/black_1.jpg,,a,,,,,,,,
,,,,,,,,,,,,kawakami,2,001,female,2022-09-25_19h31.28.006,openIAT,2020.1.0rc3,Win32,60,,,,,,,,,,,,,,,,,,,,,0,1,1,1,1,incong_train.xlsx,"A = 
Black","L = 
White"
,,,,,,,,,,,,kawakami,2,001,female,2022-09-25_19h31.28.006,openIAT,2020.1.0rc3,Win32,60,l,1,2.1516,,,,,,,,2.1516,1,0,0,0,13,1,stimuli/blank.png,Hurt,l,,,,,,,,
,,,,,,,,,,,,kawakami,2,001,female,2022-09-25_19h31.28.006,openIAT,2020.1.0rc3,Win32,60,a,1,0.9485,,,,,,,,0.9485,1,0,1,1,4,1,stimuli/black_3.jpg,,a,,,,,,,,
,,,,,,,,,,,,kawakami,2,001,female,2022-09-25_19h31.28.006,openIAT,2020.1.0rc3,Win32,60,l,1,0.5865,,,,,,,,0.5865,1,0,2,2,17,1,stimuli/blank.png,Evil,l,,,,,,,,
,,,,,,,,,,,,kawakami,2,001,female,2022-09-25_19h31.28.006,openIAT,2020.1.0rc3,Win32,60,a,1,0.6766,,,,,,,,0.6766,1,0,3,3,8,1,stimuli/black_5.jpg,,a,,,,,,,,
,,,,,,,,,,,,kawakami,2,001,female,2022-09-25_19h31.28.006,openIAT,2020.1.0rc3,Win32,60,l,1,0.6747,,,,,,,,0.6747,1,0,4,4,15,1,stimuli/blank.png,Agony,l,,,,,,,,
,,,,,,,,,,,,kawakami,2,001,female,2022-09-25_19h31.28.006,openIAT,2020.1.0rc3,Win32,60,l,1,1.0573,,,,,,,,1.0573,1,0,5,5,1,1,stimuli/white_1.jpg,,l,,,,,,,,
,,,,,,,,,,,,kawakami,2,001,female,2022-09-25_19h31.28.006,openIAT,2020.1.0rc3,Win32,60,a,1,0.4911,,,,,,,,0.4911,1,0,6,6,14,1,stimuli/blank.png,Pleasure,a,,,,,,,,
,,,,,,,,,,,,kawakami,2,001,female,2022-09-25_19h31.28.006,openIAT,2020.1.0rc3,Win32,60,a,1,0.8085,,,,,,,,0.8085,1,0,7,7,18,1,stimuli/blank.png,Joy,a,,,,,,,,
,,,,,,,,,,,,kawakami,2,001,female,2022-09-25_19h31.28.006,openIAT,2020.1.0rc3,Win32,60,l,1,0.5656,,,,,,,,0.5656,1,0,8,8,3,1,stimuli/white_2.jpg,,l,,,,,,,,
,,,,,,,,,,,,kawakami,2,001,female,2022-09-25_19h31.28.006,openIAT,2020.1.0rc3,Win32,60,a,1,0.5803,,,,,,,,0.5803,1,0,9,9,0,1,stimuli/black_1.jpg,,a,,,,,,,,
,,,,,,,,,,,,kawakami,2,001,female,2022-09-25_19h31.28.006,openIAT,2020.1.0rc3,Win32,60,l,1,0.6942,,,,,,,,0.6942,1,0,10,10,7,1,stimuli/white_4.jpg,,l,,,,,,,,
,,,,,,,,,,,,kawakami,2,001,female,2022-09-25_19h31.28.006,openIAT,2020.1.0rc3,Win32,60,a,1,0.6037,,,,,,,,0.6037,1,0,11,11,6,1,stimuli/black_4.jpg,,a,,,,,,,,
,,,,,,,,,,,,kawakami,2,001,female,2022-09-25_19h31.28.006,openIAT,2020.1.0rc3,Win32,60,a,1,0.6075,,,,,,,,0.6075,1,0,12,12,2,1,stimuli/black_2.jpg,,a,,,,,,,,
,,,,,,,,,,,,kawakami,2,001,female,2022-09-25_19h31.28.006,openIAT,2020.1.0rc3,Win32,60,l,1,0.5589,,,,,,,,0.5589,1,0,13,13,5,1,stimuli/white_3.jpg,,l,,,,,,,,
,,,,,,,,,,,,kawakami,2,001,female,2022-09-25_19h31.28.006,openIAT,2020.1.0rc3,Win32,60,a,1,0.5404,,,,,,,,0.5404,1,0,14,14,12,1,stimuli/blank.png,Happy,a,,,,,,,,
,,,,,,,,,,,,kawakami,2,001,female,2022-09-25_19h31.28.006,openIAT,2020.1.0rc3,Win32,60,l,1,0.4787,,,,,,,,0.4787,1,0,15,15,11,1,stimuli/blank.png,Bad,l,,,,,,,,
,,,,,,,,,,,,kawakami,2,001,female,2022-09-25_19h31.28.006,openIAT,2020.1.0rc3,Win32,60,a,1,0.5693,,,,,,,,0.5693,1,0,16,16,10,1,stimuli/blank.png,Good,a,,,,,,,,
,,,,,,,,,,,,kawakami,2,001,female,2022-09-25_19h31.28.006,openIAT,2020.1.0rc3,Win32,60,l,1,0.6108,,,,,,,,0.6108,1,0,17,17,9,1,stimuli/white_5.jpg,,l,,,,,,,,
,,,,,,,,,,,,kawakami,2,001,female,2022-09-25_19h31.28.006,openIAT,2020.1.0rc3,Win32,60,a,1,0.5778,,,,,,,,0.5778,1,0,18,18,16,1,stimuli/blank.png,Love,a,,,,,,,,
,,,,,,,,,,,,kawakami,2,001,female,2022-09-25_19h31.28.006,openIAT,2020.1.0rc3,Win32,60,l,1,0.7201,,,,,,,,0.7201,1,0,19,19,19,1,stimuli/blank.png,Nasty,l,,,,,,,,
,,,,,,,,,,,,kawakami,2,001,female,2022-09-25_19h31.28.006,openIAT,2020.1.0rc3,Win32,60,,,,,,,,,,,,,,,,,,,,,0,2,2,2,1,incong_test.xlsx,"A = 
Black or 
Positive","L = 
White or 
Negative"
,,,,,,,,,,,,kawakami,2,001,female,2022-09-25_19h31.28.006,openIAT,2020.1.0rc3,Win32,60,l,0,1.0191,,,,,,,,1.0191,0,0,0,0,3,1,stimuli/white_2.jpg,NaN,a,,,,,,,,
,,,,,,,,,,,,kawakami,2,001,female,2022-09-25_19h31.28.006,openIAT,2020.1.0rc3,Win32,60,a,1,3.1361,,,,,,,,3.1361,1,0,1,1,1,1,stimuli/white_1.jpg,NaN,a,,,,,,,,
,,,,,,,,,,,,kawakami,2,001,female,2022-09-25_19h31.28.006,openIAT,2020.1.0rc3,Win32,60,l,1,0.4723,,,,,,,,0.4723,1,0,2,2,0,1,stimuli/black_1.jpg,NaN,l,,,,,,,,
,,,,,,,,,,,,kawakami,2,001,female,2022-09-25_19h31.28.006,openIAT,2020.1.0rc3,Win32,60,a,1,0.9296,,,,,,,,0.9296,1,0,3,3,9,1,stimuli/white_5.jpg,NaN,a,,,,,,,,
,,,,,,,,,,,,kawakami,2,001,female,2022-09-25_19h31.28.006,openIAT,2020.1.0rc3,Win32,60,l,1,0.4293,,,,,,,,0.4293,1,0,4,4,2,1,stimuli/black_2.jpg,NaN,l,,,,,,,,
,,,,,,,,,,,,kawakami,2,001,female,2022-09-25_19h31.28.006,openIAT,2020.1.0rc3,Win32,60,l,1,0.4635,,,,,,,,0.4635,1,0,5,5,8,1,stimuli/black_5.jpg,NaN,l,,,,,,,,
,,,,,,,,,,,,kawakami,2,001,female,2022-09-25_19h31.28.006,openIAT,2020.1.0rc3,Win32,60,l,1,0.4173,,,,,,,,0.4173,1,0,6,6,6,1,stimuli/black_4.jpg,NaN,l,,,,,,,,
,,,,,,,,,,,,kawakami,2,001,female,2022-09-25_19h31.28.006,openIAT,2020.1.0rc3,Win32,60,a,1,1.1115,,,,,,,,1.1115,1,0,7,7,7,1,stimuli/white_4.jpg,NaN,a,,,,,,,,
,,,,,,,,,,,,kawakami,2,001,female,2022-09-25_19h31.28.006,openIAT,2020.1.0rc3,Win32,60,a,1,1.255,,,,,,,,1.255,1,0,8,8,5,1,stimuli/white_3.jpg,NaN,a,,,,,,,,
,,,,,,,,,,,,kawakami,2,001,female,2022-09-25_19h31.28.006,openIAT,2020.1.0rc3,Win32,60,l,1,0.6806,,,,,,,,0.6806,1,0,9,9,4,1,stimuli/black_3.jpg,NaN,l,,,,,,,,
,,,,,,,,,,,,kawakami,2,001,female,2022-09-25_19h31.28.006,openIAT,2020.1.0rc3,Win32,60,,,,,,,,,,,,,,,,,,,,,0,3,3,3,1,cong_train.xlsx,"A = 
White","L = 
Black"
,,,,,,,,,,,,kawakami,2,001,female,2022-09-25_19h31.28.006,openIAT,2020.1.0rc3,Win32,60,a,1,0.8684,,,,,,,,0.8684,1,0,0,0,7,1,stimuli/white_4.jpg,NaN,a,,,,,,,,
,,,,,,,,,,,,kawakami,2,001,female,2022-09-25_19h31.28.006,openIAT,2020.1.0rc3,Win32,60,a,1,1.1702,,,,,,,,1.1702,1,0,1,1,9,1,stimuli/white_5.jpg,NaN,a,,,,,,,,
,,,,,,,,,,,,kawakami,2,001,female,2022-09-25_19h31.28.006,openIAT,2020.1.0rc3,Win32,60,l,1,0.5512,,,,,,,,0.5512,1,0,2,2,6,1,stimuli/black_4.jpg,NaN,l,,,,,,,,
,,,,,,,,,,,,kawakami,2,001,female,2022-09-25_19h31.28.006,openIAT,2020.1.0rc3,Win32,60,a,1,0.831,,,,,,,,0.831,1,0,3,3,14,1,stimuli/blank.png,Pleasure,a,,,,,,,,
,,,,,,,,,,,,kawakami,2,001,female,2022-09-25_19h31.28.006,openIAT,2020.1.0rc3,Win32,60,a,1,0.6498,,,,,,,,0.6498,1,0,4,4,10,1,stimuli/blank.png,Good,a,,,,,,,,
,,,,,,,,,,,,kawakami,2,001,female,2022-09-25_19h31.28.006,openIAT,2020.1.0rc3,Win32,60,l,1,0.9048,,,,,,,,0.9048,1,0,5,5,11,1,stimuli/blank.png,Bad,l,,,,,,,,
,,,,,,,,,,,,kawakami,2,001,female,2022-09-25_19h31.28.006,openIAT,2020.1.0rc3,Win32,60,l,1,0.8276,,,,,,,,0.8276,1,0,6,6,4,1,stimuli/black_3.jpg,NaN,l,,,,,,,,
,,,,,,,,,,,,kawakami,2,001,female,2022-09-25_19h31.28.006,openIAT,2020.1.0rc3,Win32,60,l,1,0.7621,,,,,,,,0.7621,1,0,7,7,19,1,stimuli/blank.png,Nasty,l,,,,,,,,
,,,,,,,,,,,,kawakami,2,001,female,2022-09-25_19h31.28.006,openIAT,2020.1.0rc3,Win32,60,a,0,0.6367,,,,,,,,0.6367,0,0,8,8,13,1,stimuli/blank.png,Hurt,l,,,,,,,,
,,,,,,,,,,,,kawakami,2,001,female,2022-09-25_19h31.28.006,openIAT,2020.1.0rc3,Win32,60,a,1,1.1441,,,,,,,,1.1441,1,0,9,9,5,1,stimuli/white_3.jpg,NaN,a,,,,,,,,
,,,,,,,,,,,,kawakami,2,001,female,2022-09-25_19h31.28.006,openIAT,2020.1.0rc3,Win32,60,l,1,1.3283,,,,,,,,1.3283,1,0,10,10,17,1,stimuli/blank.png,Evil,l,,,,,,,,
,,,,,,,,,,,,kawakami,2,001,female,2022-09-25_19h31.28.006,openIAT,2020.1.0rc3,Win32,60,a,1,0.6684,,,,,,,,0.6684,1,0,11,11,1,1,stimuli/white_1.jpg,NaN,a,,,,,,,,
,,,,,,,,,,,,kawakami,2,001,female,2022-09-25_19h31.28.006,openIAT,2020.1.0rc3,Win32,60,l,1,0.5986,,,,,,,,0.5986,1,0,12,12,0,1,stimuli/black_1.jpg,NaN,l,,,,,,,,
,,,,,,,,,,,,kawakami,2,001,female,2022-09-25_19h31.28.006,openIAT,2020.1.0rc3,Win32,60,a,1,0.6269,,,,,,,,0.6269,1,0,13,13,18,1,stimuli/blank.png,Joy,a,,,,,,,,
,,,,,,,,,,,,kawakami,2,001,female,2022-09-25_19h31.28.006,openIAT,2020.1.0rc3,Win32,60,l,1,1.2631,,,,,,,,1.2631,1,0,14,14,8,1,stimuli/black_5.jpg,NaN,l,,,,,,,,
,,,,,,,,,,,,kawakami,2,001,female,2022-09-25_19h31.28.006,openIAT,2020.1.0rc3,Win32,60,l,1,0.6389,,,,,,,,0.6389,1,0,15,15,15,1,stimuli/blank.png,Agony,l,,,,,,,,
,,,,,,,,,,,,kawakami,2,001,female,2022-09-25_19h31.28.006,openIAT,2020.1.0rc3,Win32,60,a,1,1.6232,,,,,,,,1.6232,1,0,16,16,16,1,stimuli/blank.png,Love,a,,,,,,,,
,,,,,,,,,,,,kawakami,2,001,female,2022-09-25_19h31.28.006,openIAT,2020.1.0rc3,Win32,60,l,1,0.5445,,,,,,,,0.5445,1,0,17,17,2,1,stimuli/black_2.jpg,NaN,l,,,,,,,,
,,,,,,,,,,,,kawakami,2,001,female,2022-09-25_19h31.28.006,openIAT,2020.1.0rc3,Win32,60,a,1,0.5019,,,,,,,,0.5019,1,0,18,18,3,1,stimuli/white_2.jpg,NaN,a,,,,,,,,
,,,,,,,,,,,,kawakami,2,001,female,2022-09-25_19h31.28.006,openIAT,2020.1.0rc3,Win32,60,a,1,0.6055,,,,,,,,0.6055,1,0,19,19,12,1,stimuli/blank.png,Happy,a,,,,,,,,
