instr_done_touch.x,instr_done_touch.y,instr_done_touch.leftButton,instr_done_touch.midButton,instr_done_touch.rightButton,instruct_pages.thisRepN,instruct_pages.thisTrialN,instruct_pages.thisN,instruct_pages.thisIndex,instruct_pages.ran,pageN,instruct_text,participant,order,session,gender,date,expName,psychopyVersion,OS,frameRate,key_resp.keys,key_resp.corr,key_resp.rt,touch_resp.x,touch_resp.y,touch_resp.leftButton,touch_resp.midButton,touch_resp.rightButton,touch_resp.time,touch_resp.clicked_name,rt,corr,trials.thisRepN,trials.thisTrialN,trials.thisN,trials.thisIndex,trials.ran,stimImage,stimWord,CorrAns,blocks.thisRepN,blocks.thisTrialN,blocks.thisN,blocks.thisIndex,blocks.ran,conds_file,label_left,label_right
-0.139091797,-0.130756836,0,0,0,0,0,0,0,1,1,"You will be presented with words or images to classify into categories using either the 'A' or 'L' key. 
 
Try to go as fast as possible while making as few mistakes as possible. 
",kylie,1,001,female,2020-09-18_14h37.20.219,openIAT,2020.1.0rc3,MacIntel,60,,,,,,,,,,,,,,,,,,,,,,,,,,,,
-0.139091797,-0.130756836,0,0,0,0,1,1,1,1,2,"Keep in mind: 
 
1) Labels at the top of the screen indicate which catogory goes with which key. 
 
2) Each word or image has a correct catogory classification 
 
3) Keep your index fingers on the A and L keys to enable a rapid response. 
 
4) The test gives no results if you go slow- please try to go as fast as possible 
",kylie,1,001,female,2020-09-18_14h37.20.219,openIAT,2020.1.0rc3,MacIntel,60,,,,,,,,,,,,,,,,,,,,,,,,,,,,
,,,,,,,,,,,,kylie,1,001,female,2020-09-18_14h37.20.219,openIAT,2020.1.0rc3,MacIntel,60,a,1,0.894685,,,,,,,,0.894685,1,0,0,0,8,1,stimuli/blank.png,Joy,a,,,,,,,,
,,,,,,,,,,,,kylie,1,001,female,2020-09-18_14h37.20.219,openIAT,2020.1.0rc3,MacIntel,60,a,1,1.146805,,,,,,,,1.146805,1,0,1,1,6,1,stimuli/blank.png,Love,a,,,,,,,,
,,,,,,,,,,,,kylie,1,001,female,2020-09-18_14h37.20.219,openIAT,2020.1.0rc3,MacIntel,60,a,0,0.57729,,,,,,,,0.57729,0,0,2,2,5,1,stimuli/blank.png,Agony,l,,,,,,,,
,,,,,,,,,,,,kylie,1,001,female,2020-09-18_14h37.20.219,openIAT,2020.1.0rc3,MacIntel,60,l,1,0.60398,,,,,,,,0.60398,1,0,3,3,1,1,stimuli/blank.png,Bad,l,,,,,,,,
,,,,,,,,,,,,kylie,1,001,female,2020-09-18_14h37.20.219,openIAT,2020.1.0rc3,MacIntel,60,a,1,0.64741,,,,,,,,0.64741,1,0,4,4,2,1,stimuli/blank.png,Happy,a,,,,,,,,
,,,,,,,,,,,,kylie,1,001,female,2020-09-18_14h37.20.219,openIAT,2020.1.0rc3,MacIntel,60,a,1,0.51424,,,,,,,,0.51424,1,0,5,5,0,1,stimuli/blank.png,Good,a,,,,,,,,
,,,,,,,,,,,,kylie,1,001,female,2020-09-18_14h37.20.219,openIAT,2020.1.0rc3,MacIntel,60,l,1,0.55439,,,,,,,,0.55439,1,0,6,6,7,1,stimuli/blank.png,Evil,l,,,,,,,,
,,,,,,,,,,,,kylie,1,001,female,2020-09-18_14h37.20.219,openIAT,2020.1.0rc3,MacIntel,60,l,1,0.598365,,,,,,,,0.598365,1,0,7,7,9,1,stimuli/blank.png,Nasty,l,,,,,,,,
,,,,,,,,,,,,kylie,1,001,female,2020-09-18_14h37.20.219,openIAT,2020.1.0rc3,MacIntel,60,l,1,0.781005,,,,,,,,0.781005,1,0,8,8,3,1,stimuli/blank.png,Hurt,l,,,,,,,,
,,,,,,,,,,,,kylie,1,001,female,2020-09-18_14h37.20.219,openIAT,2020.1.0rc3,MacIntel,60,a,1,1.18097,,,,,,,,1.18097,1,0,9,9,4,1,stimuli/blank.png,Pleasure,a,,,,,,,,
,,,,,,,,,,,,kylie,1,001,female,2020-09-18_14h37.20.219,openIAT,2020.1.0rc3,MacIntel,60,,,,,,,,,,,,,,,,,,,,,0,0,0,0,1,pos_neg_train.xlsx,"A = 
Positive","L = 
Negative"
,,,,,,,,,,,,kylie,1,001,female,2020-09-18_14h37.20.219,openIAT,2020.1.0rc3,MacIntel,60,a,1,0.97999,,,,,,,,0.97999,1,0,0,0,3,1,stimuli/white_2.jpg,NaN,a,,,,,,,,
,,,,,,,,,,,,kylie,1,001,female,2020-09-18_14h37.20.219,openIAT,2020.1.0rc3,MacIntel,60,a,1,0.681085,,,,,,,,0.681085,1,0,1,1,9,1,stimuli/white_5.jpg,NaN,a,,,,,,,,
,,,,,,,,,,,,kylie,1,001,female,2020-09-18_14h37.20.219,openIAT,2020.1.0rc3,MacIntel,60,l,1,0.51447,,,,,,,,0.51447,1,0,2,2,4,1,stimuli/black_3.jpg,NaN,l,,,,,,,,
,,,,,,,,,,,,kylie,1,001,female,2020-09-18_14h37.20.219,openIAT,2020.1.0rc3,MacIntel,60,l,1,0.464735,,,,,,,,0.464735,1,0,3,3,2,1,stimuli/black_2.jpg,NaN,l,,,,,,,,
,,,,,,,,,,,,kylie,1,001,female,2020-09-18_14h37.20.219,openIAT,2020.1.0rc3,MacIntel,60,l,1,0.397075,,,,,,,,0.397075,1,0,4,4,6,1,stimuli/black_4.jpg,NaN,l,,,,,,,,
,,,,,,,,,,,,kylie,1,001,female,2020-09-18_14h37.20.219,openIAT,2020.1.0rc3,MacIntel,60,l,1,0.57948,,,,,,,,0.57948,1,0,5,5,8,1,stimuli/black_5.jpg,NaN,l,,,,,,,,
,,,,,,,,,,,,kylie,1,001,female,2020-09-18_14h37.20.219,openIAT,2020.1.0rc3,MacIntel,60,l,1,0.424785,,,,,,,,0.424785,1,0,6,6,0,1,stimuli/black_1.jpg,NaN,l,,,,,,,,
,,,,,,,,,,,,kylie,1,001,female,2020-09-18_14h37.20.219,openIAT,2020.1.0rc3,MacIntel,60,a,1,1.275795,,,,,,,,1.275795,1,0,7,7,5,1,stimuli/white_3.jpg,NaN,a,,,,,,,,
,,,,,,,,,,,,kylie,1,001,female,2020-09-18_14h37.20.219,openIAT,2020.1.0rc3,MacIntel,60,a,1,0.996545,,,,,,,,0.996545,1,0,8,8,1,1,stimuli/white_1.jpg,NaN,a,,,,,,,,
,,,,,,,,,,,,kylie,1,001,female,2020-09-18_14h37.20.219,openIAT,2020.1.0rc3,MacIntel,60,a,1,0.5998,,,,,,,,0.5998,1,0,9,9,7,1,stimuli/white_4.jpg,NaN,a,,,,,,,,
,,,,,,,,,,,,kylie,1,001,female,2020-09-18_14h37.20.219,openIAT,2020.1.0rc3,MacIntel,60,,,,,,,,,,,,,,,,,,,,,0,1,1,1,1,cong_train.xlsx,"A = 
White","L = 
Black"
,,,,,,,,,,,,kylie,1,001,female,2020-09-18_14h37.20.219,openIAT,2020.1.0rc3,MacIntel,60,l,1,1.128315,,,,,,,,1.128315,1,0,0,0,6,1,stimuli/black_4.jpg,NaN,l,,,,,,,,
,,,,,,,,,,,,kylie,1,001,female,2020-09-18_14h37.20.219,openIAT,2020.1.0rc3,MacIntel,60,a,1,0.961985,,,,,,,,0.961985,1,0,1,1,10,1,stimuli/blank.png,Good,a,,,,,,,,
,,,,,,,,,,,,kylie,1,001,female,2020-09-18_14h37.20.219,openIAT,2020.1.0rc3,MacIntel,60,a,1,0.794525,,,,,,,,0.794525,1,0,2,2,5,1,stimuli/white_3.jpg,NaN,a,,,,,,,,
,,,,,,,,,,,,kylie,1,001,female,2020-09-18_14h37.20.219,openIAT,2020.1.0rc3,MacIntel,60,l,0,0.51212,,,,,,,,0.51212,0,0,3,3,3,1,stimuli/white_2.jpg,NaN,a,,,,,,,,
,,,,,,,,,,,,kylie,1,001,female,2020-09-18_14h37.20.219,openIAT,2020.1.0rc3,MacIntel,60,l,1,0.69381,,,,,,,,0.69381,1,0,4,4,0,1,stimuli/black_1.jpg,NaN,l,,,,,,,,
,,,,,,,,,,,,kylie,1,001,female,2020-09-18_14h37.20.219,openIAT,2020.1.0rc3,MacIntel,60,l,1,0.762625,,,,,,,,0.762625,1,0,5,5,2,1,stimuli/black_2.jpg,NaN,l,,,,,,,,
,,,,,,,,,,,,kylie,1,001,female,2020-09-18_14h37.20.219,openIAT,2020.1.0rc3,MacIntel,60,l,1,0.904685,,,,,,,,0.904685,1,0,6,6,13,1,stimuli/blank.png,Hurt,l,,,,,,,,
,,,,,,,,,,,,kylie,1,001,female,2020-09-18_14h37.20.219,openIAT,2020.1.0rc3,MacIntel,60,a,1,0.645305,,,,,,,,0.645305,1,0,7,7,14,1,stimuli/blank.png,Pleasure,a,,,,,,,,
,,,,,,,,,,,,kylie,1,001,female,2020-09-18_14h37.20.219,openIAT,2020.1.0rc3,MacIntel,60,l,1,0.62805,,,,,,,,0.62805,1,0,8,8,4,1,stimuli/black_3.jpg,NaN,l,,,,,,,,
,,,,,,,,,,,,kylie,1,001,female,2020-09-18_14h37.20.219,openIAT,2020.1.0rc3,MacIntel,60,l,1,0.980455,,,,,,,,0.980455,1,0,9,9,11,1,stimuli/blank.png,Bad,l,,,,,,,,
,,,,,,,,,,,,kylie,1,001,female,2020-09-18_14h37.20.219,openIAT,2020.1.0rc3,MacIntel,60,a,1,0.629755,,,,,,,,0.629755,1,0,10,10,7,1,stimuli/white_4.jpg,NaN,a,,,,,,,,
,,,,,,,,,,,,kylie,1,001,female,2020-09-18_14h37.20.219,openIAT,2020.1.0rc3,MacIntel,60,a,1,0.479615,,,,,,,,0.479615,1,0,11,11,9,1,stimuli/white_5.jpg,NaN,a,,,,,,,,
,,,,,,,,,,,,kylie,1,001,female,2020-09-18_14h37.20.219,openIAT,2020.1.0rc3,MacIntel,60,l,1,0.542155,,,,,,,,0.542155,1,0,12,12,8,1,stimuli/black_5.jpg,NaN,l,,,,,,,,
,,,,,,,,,,,,kylie,1,001,female,2020-09-18_14h37.20.219,openIAT,2020.1.0rc3,MacIntel,60,a,1,0.56829,,,,,,,,0.56829,1,0,13,13,12,1,stimuli/blank.png,Happy,a,,,,,,,,
,,,,,,,,,,,,kylie,1,001,female,2020-09-18_14h37.20.219,openIAT,2020.1.0rc3,MacIntel,60,a,1,1.1601,,,,,,,,1.1601,1,0,14,14,1,1,stimuli/white_1.jpg,NaN,a,,,,,,,,
,,,,,,,,,,,,kylie,1,001,female,2020-09-18_14h37.20.219,openIAT,2020.1.0rc3,MacIntel,60,l,1,0.64355,,,,,,,,0.64355,1,0,15,15,17,1,stimuli/blank.png,Evil,l,,,,,,,,
,,,,,,,,,,,,kylie,1,001,female,2020-09-18_14h37.20.219,openIAT,2020.1.0rc3,MacIntel,60,a,1,0.509655,,,,,,,,0.509655,1,0,16,16,18,1,stimuli/blank.png,Joy,a,,,,,,,,
,,,,,,,,,,,,kylie,1,001,female,2020-09-18_14h37.20.219,openIAT,2020.1.0rc3,MacIntel,60,l,1,0.7808,,,,,,,,0.7808,1,0,17,17,15,1,stimuli/blank.png,Agony,l,,,,,,,,
,,,,,,,,,,,,kylie,1,001,female,2020-09-18_14h37.20.219,openIAT,2020.1.0rc3,MacIntel,60,a,1,0.600095,,,,,,,,0.600095,1,0,18,18,16,1,stimuli/blank.png,Love,a,,,,,,,,
,,,,,,,,,,,,kylie,1,001,female,2020-09-18_14h37.20.219,openIAT,2020.1.0rc3,MacIntel,60,l,1,0.580965,,,,,,,,0.580965,1,0,19,19,19,1,stimuli/blank.png,Nasty,l,,,,,,,,
,,,,,,,,,,,,kylie,1,001,female,2020-09-18_14h37.20.219,openIAT,2020.1.0rc3,MacIntel,60,,,,,,,,,,,,,,,,,,,,,0,2,2,2,1,cong_test.xlsx,"A = 
White or 
Positive","L = 
Black or 
Negative"
,,,,,,,,,,,,kylie,1,001,female,2020-09-18_14h37.20.219,openIAT,2020.1.0rc3,MacIntel,60,l,1,1.947125,,,,,,,,1.947125,1,0,0,0,3,1,stimuli/white_2.jpg,,l,,,,,,,,
,,,,,,,,,,,,kylie,1,001,female,2020-09-18_14h37.20.219,openIAT,2020.1.0rc3,MacIntel,60,a,1,0.96563,,,,,,,,0.96563,1,0,1,1,8,1,stimuli/black_5.jpg,,a,,,,,,,,
,,,,,,,,,,,,kylie,1,001,female,2020-09-18_14h37.20.219,openIAT,2020.1.0rc3,MacIntel,60,a,1,0.934315,,,,,,,,0.934315,1,0,2,2,6,1,stimuli/black_4.jpg,,a,,,,,,,,
,,,,,,,,,,,,kylie,1,001,female,2020-09-18_14h37.20.219,openIAT,2020.1.0rc3,MacIntel,60,l,1,0.50228,,,,,,,,0.50228,1,0,3,3,9,1,stimuli/white_5.jpg,,l,,,,,,,,
,,,,,,,,,,,,kylie,1,001,female,2020-09-18_14h37.20.219,openIAT,2020.1.0rc3,MacIntel,60,l,1,0.546055,,,,,,,,0.546055,1,0,4,4,5,1,stimuli/white_3.jpg,,l,,,,,,,,
,,,,,,,,,,,,kylie,1,001,female,2020-09-18_14h37.20.219,openIAT,2020.1.0rc3,MacIntel,60,l,1,0.51318,,,,,,,,0.51318,1,0,5,5,1,1,stimuli/white_1.jpg,,l,,,,,,,,
,,,,,,,,,,,,kylie,1,001,female,2020-09-18_14h37.20.219,openIAT,2020.1.0rc3,MacIntel,60,a,1,0.99236,,,,,,,,0.99236,1,0,6,6,0,1,stimuli/black_1.jpg,,a,,,,,,,,
,,,,,,,,,,,,kylie,1,001,female,2020-09-18_14h37.20.219,openIAT,2020.1.0rc3,MacIntel,60,a,1,0.713065,,,,,,,,0.713065,1,0,7,7,2,1,stimuli/black_2.jpg,,a,,,,,,,,
,,,,,,,,,,,,kylie,1,001,female,2020-09-18_14h37.20.219,openIAT,2020.1.0rc3,MacIntel,60,l,1,1.1311,,,,,,,,1.1311,1,0,8,8,7,1,stimuli/white_4.jpg,,l,,,,,,,,
,,,,,,,,,,,,kylie,1,001,female,2020-09-18_14h37.20.219,openIAT,2020.1.0rc3,MacIntel,60,l,0,0.746725,,,,,,,,0.746725,0,0,9,9,4,1,stimuli/black_3.jpg,,a,,,,,,,,
,,,,,,,,,,,,kylie,1,001,female,2020-09-18_14h37.20.219,openIAT,2020.1.0rc3,MacIntel,60,,,,,,,,,,,,,,,,,,,,,0,3,3,3,1,incong_train.xlsx,"A = 
Black","L = 
White"
,,,,,,,,,,,,kylie,1,001,female,2020-09-18_14h37.20.219,openIAT,2020.1.0rc3,MacIntel,60,l,1,1.69181,,,,,,,,1.69181,1,0,0,0,9,1,stimuli/white_5.jpg,,l,,,,,,,,
,,,,,,,,,,,,kylie,1,001,female,2020-09-18_14h37.20.219,openIAT,2020.1.0rc3,MacIntel,60,l,1,2.09098,,,,,,,,2.09098,1,0,1,1,17,1,stimuli/blank.png,Evil,l,,,,,,,,
,,,,,,,,,,,,kylie,1,001,female,2020-09-18_14h37.20.219,openIAT,2020.1.0rc3,MacIntel,60,a,1,1.710385,,,,,,,,1.710385,1,0,2,2,6,1,stimuli/black_4.jpg,,a,,,,,,,,
,,,,,,,,,,,,kylie,1,001,female,2020-09-18_14h37.20.219,openIAT,2020.1.0rc3,MacIntel,60,a,1,0.57903,,,,,,,,0.57903,1,0,3,3,18,1,stimuli/blank.png,Joy,a,,,,,,,,
,,,,,,,,,,,,kylie,1,001,female,2020-09-18_14h37.20.219,openIAT,2020.1.0rc3,MacIntel,60,l,1,0.90997,,,,,,,,0.90997,1,0,4,4,13,1,stimuli/blank.png,Hurt,l,,,,,,,,
,,,,,,,,,,,,kylie,1,001,female,2020-09-18_14h37.20.219,openIAT,2020.1.0rc3,MacIntel,60,l,1,0.829855,,,,,,,,0.829855,1,0,5,5,7,1,stimuli/white_4.jpg,,l,,,,,,,,
,,,,,,,,,,,,kylie,1,001,female,2020-09-18_14h37.20.219,openIAT,2020.1.0rc3,MacIntel,60,a,1,0.84905,,,,,,,,0.84905,1,0,6,6,2,1,stimuli/black_2.jpg,,a,,,,,,,,
,,,,,,,,,,,,kylie,1,001,female,2020-09-18_14h37.20.219,openIAT,2020.1.0rc3,MacIntel,60,l,1,0.861615,,,,,,,,0.861615,1,0,7,7,19,1,stimuli/blank.png,Nasty,l,,,,,,,,
,,,,,,,,,,,,kylie,1,001,female,2020-09-18_14h37.20.219,openIAT,2020.1.0rc3,MacIntel,60,l,1,0.8304,,,,,,,,0.8304,1,0,8,8,11,1,stimuli/blank.png,Bad,l,,,,,,,,
,,,,,,,,,,,,kylie,1,001,female,2020-09-18_14h37.20.219,openIAT,2020.1.0rc3,MacIntel,60,a,1,0.928655,,,,,,,,0.928655,1,0,9,9,0,1,stimuli/black_1.jpg,,a,,,,,,,,
,,,,,,,,,,,,kylie,1,001,female,2020-09-18_14h37.20.219,openIAT,2020.1.0rc3,MacIntel,60,l,1,0.54517,,,,,,,,0.54517,1,0,10,10,3,1,stimuli/white_2.jpg,,l,,,,,,,,
,,,,,,,,,,,,kylie,1,001,female,2020-09-18_14h37.20.219,openIAT,2020.1.0rc3,MacIntel,60,a,1,0.62964,,,,,,,,0.62964,1,0,11,11,10,1,stimuli/blank.png,Good,a,,,,,,,,
,,,,,,,,,,,,kylie,1,001,female,2020-09-18_14h37.20.219,openIAT,2020.1.0rc3,MacIntel,60,a,1,0.5488,,,,,,,,0.5488,1,0,12,12,16,1,stimuli/blank.png,Love,a,,,,,,,,
,,,,,,,,,,,,kylie,1,001,female,2020-09-18_14h37.20.219,openIAT,2020.1.0rc3,MacIntel,60,l,1,0.497545,,,,,,,,0.497545,1,0,13,13,15,1,stimuli/blank.png,Agony,l,,,,,,,,
,,,,,,,,,,,,kylie,1,001,female,2020-09-18_14h37.20.219,openIAT,2020.1.0rc3,MacIntel,60,a,1,0.827445,,,,,,,,0.827445,1,0,14,14,4,1,stimuli/black_3.jpg,,a,,,,,,,,
,,,,,,,,,,,,kylie,1,001,female,2020-09-18_14h37.20.219,openIAT,2020.1.0rc3,MacIntel,60,a,1,0.47926,,,,,,,,0.47926,1,0,15,15,8,1,stimuli/black_5.jpg,,a,,,,,,,,
,,,,,,,,,,,,kylie,1,001,female,2020-09-18_14h37.20.219,openIAT,2020.1.0rc3,MacIntel,60,a,1,0.77879,,,,,,,,0.77879,1,0,16,16,14,1,stimuli/blank.png,Pleasure,a,,,,,,,,
,,,,,,,,,,,,kylie,1,001,female,2020-09-18_14h37.20.219,openIAT,2020.1.0rc3,MacIntel,60,l,1,0.61326,,,,,,,,0.61326,1,0,17,17,5,1,stimuli/white_3.jpg,,l,,,,,,,,
,,,,,,,,,,,,kylie,1,001,female,2020-09-18_14h37.20.219,openIAT,2020.1.0rc3,MacIntel,60,l,0,0.57936,,,,,,,,0.57936,0,0,18,18,12,1,stimuli/blank.png,Happy,a,,,,,,,,
,,,,,,,,,,,,kylie,1,001,female,2020-09-18_14h37.20.219,openIAT,2020.1.0rc3,MacIntel,60,l,1,1.03198,,,,,,,,1.03198,1,0,19,19,1,1,stimuli/white_1.jpg,,l,,,,,,,,
