instr_done_touch.x,instr_done_touch.y,instr_done_touch.leftButton,instr_done_touch.midButton,instr_done_touch.rightButton,instruct_pages.thisRepN,instruct_pages.thisTrialN,instruct_pages.thisN,instruct_pages.thisIndex,instruct_pages.ran,pageN,instruct_text,participant,order,session,gender,date,expName,psychopyVersion,OS,frameRate,key_resp.keys,key_resp.corr,key_resp.rt,touch_resp.x,touch_resp.y,touch_resp.leftButton,touch_resp.midButton,touch_resp.rightButton,touch_resp.time,touch_resp.clicked_name,rt,corr,trials.thisRepN,trials.thisTrialN,trials.thisN,trials.thisIndex,trials.ran,stimImage,stimWord,CorrAns,blocks.thisRepN,blocks.thisTrialN,blocks.thisN,blocks.thisIndex,blocks.ran,conds_file,label_left,label_right
0.074859328,-0.2751137,0,0,0,0,0,0,0,1,1,"You will be presented with words or images to classify into categories using either the 'A' or 'L' key. 
 
Try to go as fast as possible while making as few mistakes as possible. 
",l,2,001,female,2023-10-13_14h05.40.788,openIAT,2020.1.0rc3,MacIntel,60,,,,,,,,,,,,,,,,,,,,,,,,,,,,
0.074859328,-0.2751137,0,0,0,0,1,1,1,1,2,"Keep in mind: 
 
1) Labels at the top of the screen indicate which catogory goes with which key. 
 
2) Each word or image has a correct catogory classification 
 
3) Keep your index fingers on the A and L keys to enable a rapid response. 
 
4) The test gives no results if you go slow- please try to go as fast as possible 
",l,2,001,female,2023-10-13_14h05.40.788,openIAT,2020.1.0rc3,MacIntel,60,,,,,,,,,,,,,,,,,,,,,,,,,,,,
,,,,,,,,,,,,l,2,001,female,2023-10-13_14h05.40.788,openIAT,2020.1.0rc3,MacIntel,60,a,1,1.1846,,,,,,,,1.1846,1,0,0,0,6,1,stimuli/blank.png,Love,a,,,,,,,,
,,,,,,,,,,,,l,2,001,female,2023-10-13_14h05.40.788,openIAT,2020.1.0rc3,MacIntel,60,a,1,0.7629,,,,,,,,0.7629,1,0,1,1,4,1,stimuli/blank.png,Pleasure,a,,,,,,,,
,,,,,,,,,,,,l,2,001,female,2023-10-13_14h05.40.788,openIAT,2020.1.0rc3,MacIntel,60,l,1,0.8564,,,,,,,,0.8564,1,0,2,2,5,1,stimuli/blank.png,Agony,l,,,,,,,,
,,,,,,,,,,,,l,2,001,female,2023-10-13_14h05.40.788,openIAT,2020.1.0rc3,MacIntel,60,l,0,0.5907,,,,,,,,0.5907,0,0,3,3,8,1,stimuli/blank.png,Joy,a,,,,,,,,
,,,,,,,,,,,,l,2,001,female,2023-10-13_14h05.40.788,openIAT,2020.1.0rc3,MacIntel,60,l,1,0.9725,,,,,,,,0.9725,1,0,4,4,9,1,stimuli/blank.png,Nasty,l,,,,,,,,
,,,,,,,,,,,,l,2,001,female,2023-10-13_14h05.40.788,openIAT,2020.1.0rc3,MacIntel,60,a,0,0.8255,,,,,,,,0.8255,0,0,5,5,3,1,stimuli/blank.png,Hurt,l,,,,,,,,
,,,,,,,,,,,,l,2,001,female,2023-10-13_14h05.40.788,openIAT,2020.1.0rc3,MacIntel,60,a,1,0.6307,,,,,,,,0.6307,1,0,6,6,0,1,stimuli/blank.png,Good,a,,,,,,,,
,,,,,,,,,,,,l,2,001,female,2023-10-13_14h05.40.788,openIAT,2020.1.0rc3,MacIntel,60,a,1,0.5429,,,,,,,,0.5429,1,0,7,7,2,1,stimuli/blank.png,Happy,a,,,,,,,,
,,,,,,,,,,,,l,2,001,female,2023-10-13_14h05.40.788,openIAT,2020.1.0rc3,MacIntel,60,l,1,0.5287,,,,,,,,0.5287,1,0,8,8,1,1,stimuli/blank.png,Bad,l,,,,,,,,
,,,,,,,,,,,,l,2,001,female,2023-10-13_14h05.40.788,openIAT,2020.1.0rc3,MacIntel,60,l,1,0.4936,,,,,,,,0.4936,1,0,9,9,7,1,stimuli/blank.png,Evil,l,,,,,,,,
,,,,,,,,,,,,l,2,001,female,2023-10-13_14h05.40.788,openIAT,2020.1.0rc3,MacIntel,60,,,,,,,,,,,,,,,,,,,,,0,0,0,0,1,pos_neg_train.xlsx,"A = 
Positive","L = 
Negative"
,,,,,,,,,,,,l,2,001,female,2023-10-13_14h05.40.788,openIAT,2020.1.0rc3,MacIntel,60,a,1,1.2245,,,,,,,,1.2245,1,0,0,0,0,1,stimuli/black_1.jpg,,a,,,,,,,,
,,,,,,,,,,,,l,2,001,female,2023-10-13_14h05.40.788,openIAT,2020.1.0rc3,MacIntel,60,a,0,1.0097,,,,,,,,1.0097,0,0,1,1,9,1,stimuli/white_5.jpg,,l,,,,,,,,
,,,,,,,,,,,,l,2,001,female,2023-10-13_14h05.40.788,openIAT,2020.1.0rc3,MacIntel,60,a,0,1.5419,,,,,,,,1.5419,0,0,2,2,1,1,stimuli/white_1.jpg,,l,,,,,,,,
,,,,,,,,,,,,l,2,001,female,2023-10-13_14h05.40.788,openIAT,2020.1.0rc3,MacIntel,60,a,0,0.8553,,,,,,,,0.8553,0,0,3,3,3,1,stimuli/white_2.jpg,,l,,,,,,,,
,,,,,,,,,,,,l,2,001,female,2023-10-13_14h05.40.788,openIAT,2020.1.0rc3,MacIntel,60,l,1,1.2072,,,,,,,,1.2072,1,0,4,4,7,1,stimuli/white_4.jpg,,l,,,,,,,,
,,,,,,,,,,,,l,2,001,female,2023-10-13_14h05.40.788,openIAT,2020.1.0rc3,MacIntel,60,a,1,0.579,,,,,,,,0.579,1,0,5,5,8,1,stimuli/black_5.jpg,,a,,,,,,,,
,,,,,,,,,,,,l,2,001,female,2023-10-13_14h05.40.788,openIAT,2020.1.0rc3,MacIntel,60,a,1,0.5316,,,,,,,,0.5316,1,0,6,6,4,1,stimuli/black_3.jpg,,a,,,,,,,,
,,,,,,,,,,,,l,2,001,female,2023-10-13_14h05.40.788,openIAT,2020.1.0rc3,MacIntel,60,l,1,0.6965,,,,,,,,0.6965,1,0,7,7,5,1,stimuli/white_3.jpg,,l,,,,,,,,
,,,,,,,,,,,,l,2,001,female,2023-10-13_14h05.40.788,openIAT,2020.1.0rc3,MacIntel,60,a,1,0.5405,,,,,,,,0.5405,1,0,8,8,2,1,stimuli/black_2.jpg,,a,,,,,,,,
,,,,,,,,,,,,l,2,001,female,2023-10-13_14h05.40.788,openIAT,2020.1.0rc3,MacIntel,60,a,1,0.5585,,,,,,,,0.5585,1,0,9,9,6,1,stimuli/black_4.jpg,,a,,,,,,,,
,,,,,,,,,,,,l,2,001,female,2023-10-13_14h05.40.788,openIAT,2020.1.0rc3,MacIntel,60,,,,,,,,,,,,,,,,,,,,,0,1,1,1,1,incong_train.xlsx,"A = 
Black","L = 
White"
,,,,,,,,,,,,l,2,001,female,2023-10-13_14h05.40.788,openIAT,2020.1.0rc3,MacIntel,60,a,1,0.6941,,,,,,,,0.6941,1,0,0,0,16,1,stimuli/blank.png,Love,a,,,,,,,,
,,,,,,,,,,,,l,2,001,female,2023-10-13_14h05.40.788,openIAT,2020.1.0rc3,MacIntel,60,a,0,0.4926,,,,,,,,0.4926,0,0,1,1,1,1,stimuli/white_1.jpg,,l,,,,,,,,
,,,,,,,,,,,,l,2,001,female,2023-10-13_14h05.40.788,openIAT,2020.1.0rc3,MacIntel,60,a,0,0.4656,,,,,,,,0.4656,0,0,2,2,7,1,stimuli/white_4.jpg,,l,,,,,,,,
,,,,,,,,,,,,l,2,001,female,2023-10-13_14h05.40.788,openIAT,2020.1.0rc3,MacIntel,60,a,1,0.4285,,,,,,,,0.4285,1,0,3,3,0,1,stimuli/black_1.jpg,,a,,,,,,,,
,,,,,,,,,,,,l,2,001,female,2023-10-13_14h05.40.788,openIAT,2020.1.0rc3,MacIntel,60,a,1,0.5008,,,,,,,,0.5008,1,0,4,4,4,1,stimuli/black_3.jpg,,a,,,,,,,,
,,,,,,,,,,,,l,2,001,female,2023-10-13_14h05.40.788,openIAT,2020.1.0rc3,MacIntel,60,l,1,0.4614,,,,,,,,0.4614,1,0,5,5,19,1,stimuli/blank.png,Nasty,l,,,,,,,,
,,,,,,,,,,,,l,2,001,female,2023-10-13_14h05.40.788,openIAT,2020.1.0rc3,MacIntel,60,a,1,0.4136,,,,,,,,0.4136,1,0,6,6,12,1,stimuli/blank.png,Happy,a,,,,,,,,
,,,,,,,,,,,,l,2,001,female,2023-10-13_14h05.40.788,openIAT,2020.1.0rc3,MacIntel,60,l,1,0.4781,,,,,,,,0.4781,1,0,7,7,9,1,stimuli/white_5.jpg,,l,,,,,,,,
,,,,,,,,,,,,l,2,001,female,2023-10-13_14h05.40.788,openIAT,2020.1.0rc3,MacIntel,60,a,1,0.4468,,,,,,,,0.4468,1,0,8,8,6,1,stimuli/black_4.jpg,,a,,,,,,,,
,,,,,,,,,,,,l,2,001,female,2023-10-13_14h05.40.788,openIAT,2020.1.0rc3,MacIntel,60,a,1,0.4484,,,,,,,,0.4484,1,0,9,9,8,1,stimuli/black_5.jpg,,a,,,,,,,,
,,,,,,,,,,,,l,2,001,female,2023-10-13_14h05.40.788,openIAT,2020.1.0rc3,MacIntel,60,l,0,0.4414,,,,,,,,0.4414,0,0,10,10,14,1,stimuli/blank.png,Pleasure,a,,,,,,,,
,,,,,,,,,,,,l,2,001,female,2023-10-13_14h05.40.788,openIAT,2020.1.0rc3,MacIntel,60,l,0,0.5155,,,,,,,,0.5155,0,0,11,11,10,1,stimuli/blank.png,Good,a,,,,,,,,
,,,,,,,,,,,,l,2,001,female,2023-10-13_14h05.40.788,openIAT,2020.1.0rc3,MacIntel,60,l,1,0.5723,,,,,,,,0.5723,1,0,12,12,17,1,stimuli/blank.png,Evil,l,,,,,,,,
,,,,,,,,,,,,l,2,001,female,2023-10-13_14h05.40.788,openIAT,2020.1.0rc3,MacIntel,60,a,1,0.6734,,,,,,,,0.6734,1,0,13,13,18,1,stimuli/blank.png,Joy,a,,,,,,,,
,,,,,,,,,,,,l,2,001,female,2023-10-13_14h05.40.788,openIAT,2020.1.0rc3,MacIntel,60,a,0,0.8001,,,,,,,,0.8001,0,0,14,14,15,1,stimuli/blank.png,Agony,l,,,,,,,,
,,,,,,,,,,,,l,2,001,female,2023-10-13_14h05.40.788,openIAT,2020.1.0rc3,MacIntel,60,l,1,0.6522,,,,,,,,0.6522,1,0,15,15,13,1,stimuli/blank.png,Hurt,l,,,,,,,,
,,,,,,,,,,,,l,2,001,female,2023-10-13_14h05.40.788,openIAT,2020.1.0rc3,MacIntel,60,l,1,0.6379,,,,,,,,0.6379,1,0,16,16,5,1,stimuli/white_3.jpg,,l,,,,,,,,
,,,,,,,,,,,,l,2,001,female,2023-10-13_14h05.40.788,openIAT,2020.1.0rc3,MacIntel,60,a,1,0.4384,,,,,,,,0.4384,1,0,17,17,2,1,stimuli/black_2.jpg,,a,,,,,,,,
,,,,,,,,,,,,l,2,001,female,2023-10-13_14h05.40.788,openIAT,2020.1.0rc3,MacIntel,60,l,1,0.4771,,,,,,,,0.4771,1,0,18,18,11,1,stimuli/blank.png,Bad,l,,,,,,,,
,,,,,,,,,,,,l,2,001,female,2023-10-13_14h05.40.788,openIAT,2020.1.0rc3,MacIntel,60,l,1,0.6159,,,,,,,,0.6159,1,0,19,19,3,1,stimuli/white_2.jpg,,l,,,,,,,,
,,,,,,,,,,,,l,2,001,female,2023-10-13_14h05.40.788,openIAT,2020.1.0rc3,MacIntel,60,,,,,,,,,,,,,,,,,,,,,0,2,2,2,1,incong_test.xlsx,"A = 
Black or 
Positive","L = 
White or 
Negative"
,,,,,,,,,,,,l,2,001,female,2023-10-13_14h05.40.788,openIAT,2020.1.0rc3,MacIntel,60,l,1,0.9103,,,,,,,,0.9103,1,0,0,0,4,1,stimuli/black_3.jpg,NaN,l,,,,,,,,
,,,,,,,,,,,,l,2,001,female,2023-10-13_14h05.40.788,openIAT,2020.1.0rc3,MacIntel,60,l,1,0.8928,,,,,,,,0.8928,1,0,1,1,2,1,stimuli/black_2.jpg,NaN,l,,,,,,,,
,,,,,,,,,,,,l,2,001,female,2023-10-13_14h05.40.788,openIAT,2020.1.0rc3,MacIntel,60,l,1,0.6758,,,,,,,,0.6758,1,0,2,2,0,1,stimuli/black_1.jpg,NaN,l,,,,,,,,
,,,,,,,,,,,,l,2,001,female,2023-10-13_14h05.40.788,openIAT,2020.1.0rc3,MacIntel,60,a,1,0.8415,,,,,,,,0.8415,1,0,3,3,7,1,stimuli/white_4.jpg,NaN,a,,,,,,,,
,,,,,,,,,,,,l,2,001,female,2023-10-13_14h05.40.788,openIAT,2020.1.0rc3,MacIntel,60,l,1,0.5962,,,,,,,,0.5962,1,0,4,4,6,1,stimuli/black_4.jpg,NaN,l,,,,,,,,
,,,,,,,,,,,,l,2,001,female,2023-10-13_14h05.40.788,openIAT,2020.1.0rc3,MacIntel,60,l,1,0.5611,,,,,,,,0.5611,1,0,5,5,8,1,stimuli/black_5.jpg,NaN,l,,,,,,,,
,,,,,,,,,,,,l,2,001,female,2023-10-13_14h05.40.788,openIAT,2020.1.0rc3,MacIntel,60,a,1,0.6494,,,,,,,,0.6494,1,0,6,6,1,1,stimuli/white_1.jpg,NaN,a,,,,,,,,
,,,,,,,,,,,,l,2,001,female,2023-10-13_14h05.40.788,openIAT,2020.1.0rc3,MacIntel,60,a,1,1.0276,,,,,,,,1.0276,1,0,7,7,3,1,stimuli/white_2.jpg,NaN,a,,,,,,,,
,,,,,,,,,,,,l,2,001,female,2023-10-13_14h05.40.788,openIAT,2020.1.0rc3,MacIntel,60,a,1,0.542,,,,,,,,0.542,1,0,8,8,9,1,stimuli/white_5.jpg,NaN,a,,,,,,,,
,,,,,,,,,,,,l,2,001,female,2023-10-13_14h05.40.788,openIAT,2020.1.0rc3,MacIntel,60,a,1,4.9109,,,,,,,,4.9109,1,0,9,9,5,1,stimuli/white_3.jpg,NaN,a,,,,,,,,
,,,,,,,,,,,,l,2,001,female,2023-10-13_14h05.40.788,openIAT,2020.1.0rc3,MacIntel,60,,,,,,,,,,,,,,,,,,,,,0,3,3,3,1,cong_train.xlsx,"A = 
White","L = 
Black"
