instr_done_touch.x,instr_done_touch.y,instr_done_touch.leftButton,instr_done_touch.midButton,instr_done_touch.rightButton,instruct_pages.thisRepN,instruct_pages.thisTrialN,instruct_pages.thisN,instruct_pages.thisIndex,instruct_pages.ran,pageN,instruct_text,participant,order,session,gender,date,expName,psychopyVersion,OS,frameRate,key_resp.keys,key_resp.corr,key_resp.rt,touch_resp.x,touch_resp.y,touch_resp.leftButton,touch_resp.midButton,touch_resp.rightButton,touch_resp.time,touch_resp.clicked_name,rt,corr,trials.thisRepN,trials.thisTrialN,trials.thisN,trials.thisIndex,trials.ran,stimImage,stimWord,CorrAns,blocks.thisRepN,blocks.thisTrialN,blocks.thisN,blocks.thisIndex,blocks.ran,conds_file,label_left,label_right
0.087165799,-0.131119792,0,0,0,0,0,0,0,1,1,"You will be presented with words or images to classify into categories using either the 'A' or 'L' key. 
 
Try to go as fast as possible while making as few mistakes as possible. 
",leti,2,001,female,2021-03-03_10h47.03.566,openIAT,2020.1.0rc3,MacIntel,60,,,,,,,,,,,,,,,,,,,,,,,,,,,,
0.087165799,-0.131119792,0,0,0,0,1,1,1,1,2,"Keep in mind: 
 
1) Labels at the top of the screen indicate which catogory goes with which key. 
 
2) Each word or image has a correct catogory classification 
 
3) Keep your index fingers on the A and L keys to enable a rapid response. 
 
4) The test gives no results if you go slow- please try to go as fast as possible 
",leti,2,001,female,2021-03-03_10h47.03.566,openIAT,2020.1.0rc3,MacIntel,60,,,,,,,,,,,,,,,,,,,,,,,,,,,,
,,,,,,,,,,,,leti,2,001,female,2021-03-03_10h47.03.566,openIAT,2020.1.0rc3,MacIntel,60,l,1,1.466365,,,,,,,,1.466365,1,0,0,0,5,1,stimuli/blank.png,Agony,l,,,,,,,,
,,,,,,,,,,,,leti,2,001,female,2021-03-03_10h47.03.566,openIAT,2020.1.0rc3,MacIntel,60,l,1,1.401365,,,,,,,,1.401365,1,0,1,1,1,1,stimuli/blank.png,Bad,l,,,,,,,,
,,,,,,,,,,,,leti,2,001,female,2021-03-03_10h47.03.566,openIAT,2020.1.0rc3,MacIntel,60,a,1,1.048895,,,,,,,,1.048895,1,0,2,2,8,1,stimuli/blank.png,Joy,a,,,,,,,,
,,,,,,,,,,,,leti,2,001,female,2021-03-03_10h47.03.566,openIAT,2020.1.0rc3,MacIntel,60,l,1,1.11232,,,,,,,,1.11232,1,0,3,3,7,1,stimuli/blank.png,Evil,l,,,,,,,,
,,,,,,,,,,,,leti,2,001,female,2021-03-03_10h47.03.566,openIAT,2020.1.0rc3,MacIntel,60,l,1,2.20197,,,,,,,,2.20197,1,0,4,4,9,1,stimuli/blank.png,Nasty,l,,,,,,,,
,,,,,,,,,,,,leti,2,001,female,2021-03-03_10h47.03.566,openIAT,2020.1.0rc3,MacIntel,60,a,1,0.982335,,,,,,,,0.982335,1,0,5,5,2,1,stimuli/blank.png,Happy,a,,,,,,,,
,,,,,,,,,,,,leti,2,001,female,2021-03-03_10h47.03.566,openIAT,2020.1.0rc3,MacIntel,60,l,1,1.680105,,,,,,,,1.680105,1,0,6,6,3,1,stimuli/blank.png,Hurt,l,,,,,,,,
,,,,,,,,,,,,leti,2,001,female,2021-03-03_10h47.03.566,openIAT,2020.1.0rc3,MacIntel,60,a,1,0.875465,,,,,,,,0.875465,1,0,7,7,0,1,stimuli/blank.png,Good,a,,,,,,,,
,,,,,,,,,,,,leti,2,001,female,2021-03-03_10h47.03.566,openIAT,2020.1.0rc3,MacIntel,60,a,1,0.898245,,,,,,,,0.898245,1,0,8,8,4,1,stimuli/blank.png,Pleasure,a,,,,,,,,
,,,,,,,,,,,,leti,2,001,female,2021-03-03_10h47.03.566,openIAT,2020.1.0rc3,MacIntel,60,a,1,1.012275,,,,,,,,1.012275,1,0,9,9,6,1,stimuli/blank.png,Love,a,,,,,,,,
,,,,,,,,,,,,leti,2,001,female,2021-03-03_10h47.03.566,openIAT,2020.1.0rc3,MacIntel,60,,,,,,,,,,,,,,,,,,,,,0,0,0,0,1,pos_neg_train.xlsx,"A = 
Positive","L = 
Negative"
,,,,,,,,,,,,leti,2,001,female,2021-03-03_10h47.03.566,openIAT,2020.1.0rc3,MacIntel,60,l,1,2.21267,,,,,,,,2.21267,1,0,0,0,9,1,stimuli/white_5.jpg,,l,,,,,,,,
,,,,,,,,,,,,leti,2,001,female,2021-03-03_10h47.03.566,openIAT,2020.1.0rc3,MacIntel,60,a,1,0.89885,,,,,,,,0.89885,1,0,1,1,6,1,stimuli/black_4.jpg,,a,,,,,,,,
,,,,,,,,,,,,leti,2,001,female,2021-03-03_10h47.03.566,openIAT,2020.1.0rc3,MacIntel,60,l,1,1.29905,,,,,,,,1.29905,1,0,2,2,1,1,stimuli/white_1.jpg,,l,,,,,,,,
,,,,,,,,,,,,leti,2,001,female,2021-03-03_10h47.03.566,openIAT,2020.1.0rc3,MacIntel,60,a,1,0.8655,,,,,,,,0.8655,1,0,3,3,0,1,stimuli/black_1.jpg,,a,,,,,,,,
,,,,,,,,,,,,leti,2,001,female,2021-03-03_10h47.03.566,openIAT,2020.1.0rc3,MacIntel,60,a,1,1.080545,,,,,,,,1.080545,1,0,4,4,4,1,stimuli/black_3.jpg,,a,,,,,,,,
,,,,,,,,,,,,leti,2,001,female,2021-03-03_10h47.03.566,openIAT,2020.1.0rc3,MacIntel,60,l,1,1.132775,,,,,,,,1.132775,1,0,5,5,7,1,stimuli/white_4.jpg,,l,,,,,,,,
,,,,,,,,,,,,leti,2,001,female,2021-03-03_10h47.03.566,openIAT,2020.1.0rc3,MacIntel,60,a,1,3.371865,,,,,,,,3.371865,1,0,6,6,2,1,stimuli/black_2.jpg,,a,,,,,,,,
,,,,,,,,,,,,leti,2,001,female,2021-03-03_10h47.03.566,openIAT,2020.1.0rc3,MacIntel,60,l,1,1.054605,,,,,,,,1.054605,1,0,7,7,3,1,stimuli/white_2.jpg,,l,,,,,,,,
,,,,,,,,,,,,leti,2,001,female,2021-03-03_10h47.03.566,openIAT,2020.1.0rc3,MacIntel,60,a,1,1.344365,,,,,,,,1.344365,1,0,8,8,8,1,stimuli/black_5.jpg,,a,,,,,,,,
,,,,,,,,,,,,leti,2,001,female,2021-03-03_10h47.03.566,openIAT,2020.1.0rc3,MacIntel,60,l,1,1.72637,,,,,,,,1.72637,1,0,9,9,5,1,stimuli/white_3.jpg,,l,,,,,,,,
,,,,,,,,,,,,leti,2,001,female,2021-03-03_10h47.03.566,openIAT,2020.1.0rc3,MacIntel,60,,,,,,,,,,,,,,,,,,,,,0,1,1,1,1,incong_train.xlsx,"A = 
Black","L = 
White"
,,,,,,,,,,,,leti,2,001,female,2021-03-03_10h47.03.566,openIAT,2020.1.0rc3,MacIntel,60,a,1,1.679445,,,,,,,,1.679445,1,0,0,0,16,1,stimuli/blank.png,Love,a,,,,,,,,
,,,,,,,,,,,,leti,2,001,female,2021-03-03_10h47.03.566,openIAT,2020.1.0rc3,MacIntel,60,a,1,1.930625,,,,,,,,1.930625,1,0,1,1,0,1,stimuli/black_1.jpg,,a,,,,,,,,
,,,,,,,,,,,,leti,2,001,female,2021-03-03_10h47.03.566,openIAT,2020.1.0rc3,MacIntel,60,l,1,5.231365,,,,,,,,5.231365,1,0,2,2,7,1,stimuli/white_4.jpg,,l,,,,,,,,
,,,,,,,,,,,,leti,2,001,female,2021-03-03_10h47.03.566,openIAT,2020.1.0rc3,MacIntel,60,a,1,1.576555,,,,,,,,1.576555,1,0,3,3,14,1,stimuli/blank.png,Pleasure,a,,,,,,,,
,,,,,,,,,,,,leti,2,001,female,2021-03-03_10h47.03.566,openIAT,2020.1.0rc3,MacIntel,60,a,1,1.446895,,,,,,,,1.446895,1,0,4,4,2,1,stimuli/black_2.jpg,,a,,,,,,,,
,,,,,,,,,,,,leti,2,001,female,2021-03-03_10h47.03.566,openIAT,2020.1.0rc3,MacIntel,60,a,1,1.081755,,,,,,,,1.081755,1,0,5,5,18,1,stimuli/blank.png,Joy,a,,,,,,,,
,,,,,,,,,,,,leti,2,001,female,2021-03-03_10h47.03.566,openIAT,2020.1.0rc3,MacIntel,60,l,1,1.484255,,,,,,,,1.484255,1,0,6,6,9,1,stimuli/white_5.jpg,,l,,,,,,,,
,,,,,,,,,,,,leti,2,001,female,2021-03-03_10h47.03.566,openIAT,2020.1.0rc3,MacIntel,60,l,1,1.7654,,,,,,,,1.7654,1,0,7,7,1,1,stimuli/white_1.jpg,,l,,,,,,,,
,,,,,,,,,,,,leti,2,001,female,2021-03-03_10h47.03.566,openIAT,2020.1.0rc3,MacIntel,60,l,1,1.660995,,,,,,,,1.660995,1,0,8,8,15,1,stimuli/blank.png,Agony,l,,,,,,,,
,,,,,,,,,,,,leti,2,001,female,2021-03-03_10h47.03.566,openIAT,2020.1.0rc3,MacIntel,60,l,1,1.878165,,,,,,,,1.878165,1,0,9,9,3,1,stimuli/white_2.jpg,,l,,,,,,,,
,,,,,,,,,,,,leti,2,001,female,2021-03-03_10h47.03.566,openIAT,2020.1.0rc3,MacIntel,60,a,1,0.982485,,,,,,,,0.982485,1,0,10,10,10,1,stimuli/blank.png,Good,a,,,,,,,,
,,,,,,,,,,,,leti,2,001,female,2021-03-03_10h47.03.566,openIAT,2020.1.0rc3,MacIntel,60,l,1,2.36602,,,,,,,,2.36602,1,0,11,11,11,1,stimuli/blank.png,Bad,l,,,,,,,,
,,,,,,,,,,,,leti,2,001,female,2021-03-03_10h47.03.566,openIAT,2020.1.0rc3,MacIntel,60,a,1,3.44951,,,,,,,,3.44951,1,0,12,12,6,1,stimuli/black_4.jpg,,a,,,,,,,,
,,,,,,,,,,,,leti,2,001,female,2021-03-03_10h47.03.566,openIAT,2020.1.0rc3,MacIntel,60,a,1,1.29745,,,,,,,,1.29745,1,0,13,13,12,1,stimuli/blank.png,Happy,a,,,,,,,,
,,,,,,,,,,,,leti,2,001,female,2021-03-03_10h47.03.566,openIAT,2020.1.0rc3,MacIntel,60,l,1,1.13206,,,,,,,,1.13206,1,0,14,14,19,1,stimuli/blank.png,Nasty,l,,,,,,,,
,,,,,,,,,,,,leti,2,001,female,2021-03-03_10h47.03.566,openIAT,2020.1.0rc3,MacIntel,60,a,1,1.098445,,,,,,,,1.098445,1,0,15,15,4,1,stimuli/black_3.jpg,,a,,,,,,,,
,,,,,,,,,,,,leti,2,001,female,2021-03-03_10h47.03.566,openIAT,2020.1.0rc3,MacIntel,60,l,1,0.99307,,,,,,,,0.99307,1,0,16,16,13,1,stimuli/blank.png,Hurt,l,,,,,,,,
,,,,,,,,,,,,leti,2,001,female,2021-03-03_10h47.03.566,openIAT,2020.1.0rc3,MacIntel,60,l,1,0.89716,,,,,,,,0.89716,1,0,17,17,5,1,stimuli/white_3.jpg,,l,,,,,,,,
,,,,,,,,,,,,leti,2,001,female,2021-03-03_10h47.03.566,openIAT,2020.1.0rc3,MacIntel,60,l,1,1.364125,,,,,,,,1.364125,1,0,18,18,17,1,stimuli/blank.png,Evil,l,,,,,,,,
,,,,,,,,,,,,leti,2,001,female,2021-03-03_10h47.03.566,openIAT,2020.1.0rc3,MacIntel,60,a,1,1.11539,,,,,,,,1.11539,1,0,19,19,8,1,stimuli/black_5.jpg,,a,,,,,,,,
,,,,,,,,,,,,leti,2,001,female,2021-03-03_10h47.03.566,openIAT,2020.1.0rc3,MacIntel,60,,,,,,,,,,,,,,,,,,,,,0,2,2,2,1,incong_test.xlsx,"A = 
Black or 
Positive","L = 
White or 
Negative"
,,,,,,,,,,,,leti,2,001,female,2021-03-03_10h47.03.566,openIAT,2020.1.0rc3,MacIntel,60,a,1,1.99885,,,,,,,,1.99885,1,0,0,0,7,1,stimuli/white_4.jpg,NaN,a,,,,,,,,
,,,,,,,,,,,,leti,2,001,female,2021-03-03_10h47.03.566,openIAT,2020.1.0rc3,MacIntel,60,l,1,0.964065,,,,,,,,0.964065,1,0,1,1,6,1,stimuli/black_4.jpg,NaN,l,,,,,,,,
,,,,,,,,,,,,leti,2,001,female,2021-03-03_10h47.03.566,openIAT,2020.1.0rc3,MacIntel,60,l,1,1.66445,,,,,,,,1.66445,1,0,2,2,2,1,stimuli/black_2.jpg,NaN,l,,,,,,,,
,,,,,,,,,,,,leti,2,001,female,2021-03-03_10h47.03.566,openIAT,2020.1.0rc3,MacIntel,60,a,1,1.470485,,,,,,,,1.470485,1,0,3,3,1,1,stimuli/white_1.jpg,NaN,a,,,,,,,,
,,,,,,,,,,,,leti,2,001,female,2021-03-03_10h47.03.566,openIAT,2020.1.0rc3,MacIntel,60,a,1,1.457385,,,,,,,,1.457385,1,0,4,4,3,1,stimuli/white_2.jpg,NaN,a,,,,,,,,
,,,,,,,,,,,,leti,2,001,female,2021-03-03_10h47.03.566,openIAT,2020.1.0rc3,MacIntel,60,l,1,1.092025,,,,,,,,1.092025,1,0,5,5,4,1,stimuli/black_3.jpg,NaN,l,,,,,,,,
,,,,,,,,,,,,leti,2,001,female,2021-03-03_10h47.03.566,openIAT,2020.1.0rc3,MacIntel,60,l,1,1.853285,,,,,,,,1.853285,1,0,6,6,0,1,stimuli/black_1.jpg,NaN,l,,,,,,,,
,,,,,,,,,,,,leti,2,001,female,2021-03-03_10h47.03.566,openIAT,2020.1.0rc3,MacIntel,60,a,1,0.881915,,,,,,,,0.881915,1,0,7,7,9,1,stimuli/white_5.jpg,NaN,a,,,,,,,,
,,,,,,,,,,,,leti,2,001,female,2021-03-03_10h47.03.566,openIAT,2020.1.0rc3,MacIntel,60,l,1,0.882225,,,,,,,,0.882225,1,0,8,8,8,1,stimuli/black_5.jpg,NaN,l,,,,,,,,
,,,,,,,,,,,,leti,2,001,female,2021-03-03_10h47.03.566,openIAT,2020.1.0rc3,MacIntel,60,a,1,1.216335,,,,,,,,1.216335,1,0,9,9,5,1,stimuli/white_3.jpg,NaN,a,,,,,,,,
,,,,,,,,,,,,leti,2,001,female,2021-03-03_10h47.03.566,openIAT,2020.1.0rc3,MacIntel,60,,,,,,,,,,,,,,,,,,,,,0,3,3,3,1,cong_train.xlsx,"A = 
White","L = 
Black"
,,,,,,,,,,,,leti,2,001,female,2021-03-03_10h47.03.566,openIAT,2020.1.0rc3,MacIntel,60,l,1,1.70314,,,,,,,,1.70314,1,0,0,0,6,1,stimuli/black_4.jpg,NaN,l,,,,,,,,
,,,,,,,,,,,,leti,2,001,female,2021-03-03_10h47.03.566,openIAT,2020.1.0rc3,MacIntel,60,l,1,1.598005,,,,,,,,1.598005,1,0,1,1,8,1,stimuli/black_5.jpg,NaN,l,,,,,,,,
,,,,,,,,,,,,leti,2,001,female,2021-03-03_10h47.03.566,openIAT,2020.1.0rc3,MacIntel,60,l,1,0.8645,,,,,,,,0.8645,1,0,2,2,2,1,stimuli/black_2.jpg,NaN,l,,,,,,,,
,,,,,,,,,,,,leti,2,001,female,2021-03-03_10h47.03.566,openIAT,2020.1.0rc3,MacIntel,60,l,1,1.819205,,,,,,,,1.819205,1,0,3,3,4,1,stimuli/black_3.jpg,NaN,l,,,,,,,,
,,,,,,,,,,,,leti,2,001,female,2021-03-03_10h47.03.566,openIAT,2020.1.0rc3,MacIntel,60,l,1,1.0038,,,,,,,,1.0038,1,0,4,4,11,1,stimuli/blank.png,Bad,l,,,,,,,,
,,,,,,,,,,,,leti,2,001,female,2021-03-03_10h47.03.566,openIAT,2020.1.0rc3,MacIntel,60,l,1,1.77989,,,,,,,,1.77989,1,0,5,5,15,1,stimuli/blank.png,Agony,l,,,,,,,,
,,,,,,,,,,,,leti,2,001,female,2021-03-03_10h47.03.566,openIAT,2020.1.0rc3,MacIntel,60,l,1,0.759445,,,,,,,,0.759445,1,0,6,6,17,1,stimuli/blank.png,Evil,l,,,,,,,,
,,,,,,,,,,,,leti,2,001,female,2021-03-03_10h47.03.566,openIAT,2020.1.0rc3,MacIntel,60,a,1,0.981945,,,,,,,,0.981945,1,0,7,7,14,1,stimuli/blank.png,Pleasure,a,,,,,,,,
,,,,,,,,,,,,leti,2,001,female,2021-03-03_10h47.03.566,openIAT,2020.1.0rc3,MacIntel,60,a,1,2.08235,,,,,,,,2.08235,1,0,8,8,5,1,stimuli/white_3.jpg,NaN,a,,,,,,,,
,,,,,,,,,,,,leti,2,001,female,2021-03-03_10h47.03.566,openIAT,2020.1.0rc3,MacIntel,60,a,1,0.983305,,,,,,,,0.983305,1,0,9,9,16,1,stimuli/blank.png,Love,a,,,,,,,,
,,,,,,,,,,,,leti,2,001,female,2021-03-03_10h47.03.566,openIAT,2020.1.0rc3,MacIntel,60,a,1,1.453835,,,,,,,,1.453835,1,0,10,10,12,1,stimuli/blank.png,Happy,a,,,,,,,,
,,,,,,,,,,,,leti,2,001,female,2021-03-03_10h47.03.566,openIAT,2020.1.0rc3,MacIntel,60,l,1,1.854315,,,,,,,,1.854315,1,0,11,11,19,1,stimuli/blank.png,Nasty,l,,,,,,,,
,,,,,,,,,,,,leti,2,001,female,2021-03-03_10h47.03.566,openIAT,2020.1.0rc3,MacIntel,60,a,1,2.01758,,,,,,,,2.01758,1,0,12,12,3,1,stimuli/white_2.jpg,NaN,a,,,,,,,,
,,,,,,,,,,,,leti,2,001,female,2021-03-03_10h47.03.566,openIAT,2020.1.0rc3,MacIntel,60,a,1,0.89822,,,,,,,,0.89822,1,0,13,13,1,1,stimuli/white_1.jpg,NaN,a,,,,,,,,
,,,,,,,,,,,,leti,2,001,female,2021-03-03_10h47.03.566,openIAT,2020.1.0rc3,MacIntel,60,a,1,0.93014,,,,,,,,0.93014,1,0,14,14,18,1,stimuli/blank.png,Joy,a,,,,,,,,
,,,,,,,,,,,,leti,2,001,female,2021-03-03_10h47.03.566,openIAT,2020.1.0rc3,MacIntel,60,l,1,1.298315,,,,,,,,1.298315,1,0,15,15,0,1,stimuli/black_1.jpg,NaN,l,,,,,,,,
,,,,,,,,,,,,leti,2,001,female,2021-03-03_10h47.03.566,openIAT,2020.1.0rc3,MacIntel,60,a,1,0.832515,,,,,,,,0.832515,1,0,16,16,10,1,stimuli/blank.png,Good,a,,,,,,,,
,,,,,,,,,,,,leti,2,001,female,2021-03-03_10h47.03.566,openIAT,2020.1.0rc3,MacIntel,60,l,1,2.262825,,,,,,,,2.262825,1,0,17,17,13,1,stimuli/blank.png,Hurt,l,,,,,,,,
,,,,,,,,,,,,leti,2,001,female,2021-03-03_10h47.03.566,openIAT,2020.1.0rc3,MacIntel,60,a,1,1.603915,,,,,,,,1.603915,1,0,18,18,7,1,stimuli/white_4.jpg,NaN,a,,,,,,,,
,,,,,,,,,,,,leti,2,001,female,2021-03-03_10h47.03.566,openIAT,2020.1.0rc3,MacIntel,60,a,1,1.38134,,,,,,,,1.38134,1,0,19,19,9,1,stimuli/white_5.jpg,NaN,a,,,,,,,,
