instr_done_touch.x,instr_done_touch.y,instr_done_touch.leftButton,instr_done_touch.midButton,instr_done_touch.rightButton,instr_done_touch.clicked_name,instruct_pages.thisRepN,instruct_pages.thisTrialN,instruct_pages.thisN,instruct_pages.thisIndex,instruct_pages.ran,pageN,instruct_text,participant,order,session,gender,date,expName,psychopyVersion,OS,frameRate,key_resp.keys,key_resp.corr,key_resp.rt,touch_resp.x,touch_resp.y,touch_resp.leftButton,touch_resp.midButton,touch_resp.rightButton,touch_resp.time,touch_resp.clicked_name,rt,corr,trials.thisRepN,trials.thisTrialN,trials.thisN,trials.thisIndex,trials.ran,stimImage,stimWord,CorrAns,blocks.thisRepN,blocks.thisTrialN,blocks.thisN,blocks.thisIndex,blocks.ran,conds_file,label_left,label_right
-0.023148148,-0.387962963,1,0,0,instr_done_button,0,0,0,0,1,1,"You will be presented with words or images to classify into categories using either the 'A' or 'L' key. 
 
Try to go as fast as possible while making as few mistakes as possible. 
",LingEx,2,001,male,2023-05-16_10h12.10.387,openIAT,2020.1.0rc3,Win32,60,,,,,,,,,,,,,,,,,,,,,,,,,,,,
0.010185185,-0.400925926,1,0,0,instr_done_button,0,1,1,1,1,2,"Keep in mind: 
 
1) Labels at the top of the screen indicate which catogory goes with which key. 
 
2) Each word or image has a correct catogory classification 
 
3) Keep your index fingers on the A and L keys to enable a rapid response. 
 
4) The test gives no results if you go slow- please try to go as fast as possible 
",LingEx,2,001,male,2023-05-16_10h12.10.387,openIAT,2020.1.0rc3,Win32,60,,,,,,,,,,,,,,,,,,,,,,,,,,,,
,,,,,,,,,,,,,LingEx,2,001,male,2023-05-16_10h12.10.387,openIAT,2020.1.0rc3,Win32,60,l,1,3.028,,,,,,,,3.028,1,0,0,0,9,1,stimuli/blank.png,Nasty,l,,,,,,,,
,,,,,,,,,,,,,LingEx,2,001,male,2023-05-16_10h12.10.387,openIAT,2020.1.0rc3,Win32,60,a,1,1.25,,,,,,,,1.25,1,0,1,1,8,1,stimuli/blank.png,Joy,a,,,,,,,,
,,,,,,,,,,,,,LingEx,2,001,male,2023-05-16_10h12.10.387,openIAT,2020.1.0rc3,Win32,60,a,1,0.881,,,,,,,,0.881,1,0,2,2,6,1,stimuli/blank.png,Love,a,,,,,,,,
,,,,,,,,,,,,,LingEx,2,001,male,2023-05-16_10h12.10.387,openIAT,2020.1.0rc3,Win32,60,l,1,0.949,,,,,,,,0.949,1,0,3,3,7,1,stimuli/blank.png,Evil,l,,,,,,,,
,,,,,,,,,,,,,LingEx,2,001,male,2023-05-16_10h12.10.387,openIAT,2020.1.0rc3,Win32,60,a,1,0.864,,,,,,,,0.864,1,0,4,4,4,1,stimuli/blank.png,Pleasure,a,,,,,,,,
,,,,,,,,,,,,,LingEx,2,001,male,2023-05-16_10h12.10.387,openIAT,2020.1.0rc3,Win32,60,l,1,1.23,,,,,,,,1.23,1,0,5,5,3,1,stimuli/blank.png,Hurt,l,,,,,,,,
,,,,,,,,,,,,,LingEx,2,001,male,2023-05-16_10h12.10.387,openIAT,2020.1.0rc3,Win32,60,l,1,0.949,,,,,,,,0.949,1,0,6,6,5,1,stimuli/blank.png,Agony,l,,,,,,,,
,,,,,,,,,,,,,LingEx,2,001,male,2023-05-16_10h12.10.387,openIAT,2020.1.0rc3,Win32,60,a,1,0.764,,,,,,,,0.764,1,0,7,7,2,1,stimuli/blank.png,Happy,a,,,,,,,,
,,,,,,,,,,,,,LingEx,2,001,male,2023-05-16_10h12.10.387,openIAT,2020.1.0rc3,Win32,60,a,1,0.699,,,,,,,,0.699,1,0,8,8,0,1,stimuli/blank.png,Good,a,,,,,,,,
,,,,,,,,,,,,,LingEx,2,001,male,2023-05-16_10h12.10.387,openIAT,2020.1.0rc3,Win32,60,l,1,0.882,,,,,,,,0.882,1,0,9,9,1,1,stimuli/blank.png,Bad,l,,,,,,,,
,,,,,,,,,,,,,LingEx,2,001,male,2023-05-16_10h12.10.387,openIAT,2020.1.0rc3,Win32,60,,,,,,,,,,,,,,,,,,,,,0,0,0,0,1,pos_neg_train.xlsx,"A = 
Positive","L = 
Negative"
,,,,,,,,,,,,,LingEx,2,001,male,2023-05-16_10h12.10.387,openIAT,2020.1.0rc3,Win32,60,a,1,2.73,,,,,,,,2.73,1,0,0,0,8,1,stimuli/black_5.jpg,,a,,,,,,,,
,,,,,,,,,,,,,LingEx,2,001,male,2023-05-16_10h12.10.387,openIAT,2020.1.0rc3,Win32,60,a,1,2.164,,,,,,,,2.164,1,0,1,1,2,1,stimuli/black_2.jpg,,a,,,,,,,,
,,,,,,,,,,,,,LingEx,2,001,male,2023-05-16_10h12.10.387,openIAT,2020.1.0rc3,Win32,60,a,1,0.733,,,,,,,,0.733,1,0,2,2,6,1,stimuli/black_4.jpg,,a,,,,,,,,
,,,,,,,,,,,,,LingEx,2,001,male,2023-05-16_10h12.10.387,openIAT,2020.1.0rc3,Win32,60,l,1,3.612,,,,,,,,3.612,1,0,3,3,3,1,stimuli/white_2.jpg,,l,,,,,,,,
,,,,,,,,,,,,,LingEx,2,001,male,2023-05-16_10h12.10.387,openIAT,2020.1.0rc3,Win32,60,l,1,1.214,,,,,,,,1.214,1,0,4,4,1,1,stimuli/white_1.jpg,,l,,,,,,,,
,,,,,,,,,,,,,LingEx,2,001,male,2023-05-16_10h12.10.387,openIAT,2020.1.0rc3,Win32,60,l,1,1.031,,,,,,,,1.031,1,0,5,5,7,1,stimuli/white_4.jpg,,l,,,,,,,,
,,,,,,,,,,,,,LingEx,2,001,male,2023-05-16_10h12.10.387,openIAT,2020.1.0rc3,Win32,60,a,1,0.946,,,,,,,,0.946,1,0,6,6,4,1,stimuli/black_3.jpg,,a,,,,,,,,
,,,,,,,,,,,,,LingEx,2,001,male,2023-05-16_10h12.10.387,openIAT,2020.1.0rc3,Win32,60,l,1,1.465,,,,,,,,1.465,1,0,7,7,9,1,stimuli/white_5.jpg,,l,,,,,,,,
,,,,,,,,,,,,,LingEx,2,001,male,2023-05-16_10h12.10.387,openIAT,2020.1.0rc3,Win32,60,l,1,1.116,,,,,,,,1.116,1,0,8,8,5,1,stimuli/white_3.jpg,,l,,,,,,,,
,,,,,,,,,,,,,LingEx,2,001,male,2023-05-16_10h12.10.387,openIAT,2020.1.0rc3,Win32,60,a,1,0.792,,,,,,,,0.792,1,0,9,9,0,1,stimuli/black_1.jpg,,a,,,,,,,,
,,,,,,,,,,,,,LingEx,2,001,male,2023-05-16_10h12.10.387,openIAT,2020.1.0rc3,Win32,60,,,,,,,,,,,,,,,,,,,,,0,1,1,1,1,incong_train.xlsx,"A = 
Black","L = 
White"
,,,,,,,,,,,,,LingEx,2,001,male,2023-05-16_10h12.10.387,openIAT,2020.1.0rc3,Win32,60,a,0,3.829,,,,,,,,3.829,0,0,0,0,13,1,stimuli/blank.png,Hurt,l,,,,,,,,
,,,,,,,,,,,,,LingEx,2,001,male,2023-05-16_10h12.10.387,openIAT,2020.1.0rc3,Win32,60,l,1,7.88,,,,,,,,7.88,1,0,1,1,19,1,stimuli/blank.png,Nasty,l,,,,,,,,
,,,,,,,,,,,,,LingEx,2,001,male,2023-05-16_10h12.10.387,openIAT,2020.1.0rc3,Win32,60,l,1,2.278,,,,,,,,2.278,1,0,2,2,9,1,stimuli/white_5.jpg,,l,,,,,,,,
,,,,,,,,,,,,,LingEx,2,001,male,2023-05-16_10h12.10.387,openIAT,2020.1.0rc3,Win32,60,l,1,2.699,,,,,,,,2.699,1,0,3,3,11,1,stimuli/blank.png,Bad,l,,,,,,,,
,,,,,,,,,,,,,LingEx,2,001,male,2023-05-16_10h12.10.387,openIAT,2020.1.0rc3,Win32,60,l,1,2.316,,,,,,,,2.316,1,0,4,4,17,1,stimuli/blank.png,Evil,l,,,,,,,,
,,,,,,,,,,,,,LingEx,2,001,male,2023-05-16_10h12.10.387,openIAT,2020.1.0rc3,Win32,60,a,1,1.445,,,,,,,,1.445,1,0,5,5,0,1,stimuli/black_1.jpg,,a,,,,,,,,
,,,,,,,,,,,,,LingEx,2,001,male,2023-05-16_10h12.10.387,openIAT,2020.1.0rc3,Win32,60,a,1,0.877,,,,,,,,0.877,1,0,6,6,2,1,stimuli/black_2.jpg,,a,,,,,,,,
,,,,,,,,,,,,,LingEx,2,001,male,2023-05-16_10h12.10.387,openIAT,2020.1.0rc3,Win32,60,a,1,0.74,,,,,,,,0.74,1,0,7,7,8,1,stimuli/black_5.jpg,,a,,,,,,,,
,,,,,,,,,,,,,LingEx,2,001,male,2023-05-16_10h12.10.387,openIAT,2020.1.0rc3,Win32,60,l,1,1.528,,,,,,,,1.528,1,0,8,8,3,1,stimuli/white_2.jpg,,l,,,,,,,,
,,,,,,,,,,,,,LingEx,2,001,male,2023-05-16_10h12.10.387,openIAT,2020.1.0rc3,Win32,60,a,1,2.514,,,,,,,,2.514,1,0,9,9,16,1,stimuli/blank.png,Love,a,,,,,,,,
,,,,,,,,,,,,,LingEx,2,001,male,2023-05-16_10h12.10.387,openIAT,2020.1.0rc3,Win32,60,l,1,1.594,,,,,,,,1.594,1,0,10,10,15,1,stimuli/blank.png,Agony,l,,,,,,,,
,,,,,,,,,,,,,LingEx,2,001,male,2023-05-16_10h12.10.387,openIAT,2020.1.0rc3,Win32,60,a,1,1.845,,,,,,,,1.845,1,0,11,11,18,1,stimuli/blank.png,Joy,a,,,,,,,,
,,,,,,,,,,,,,LingEx,2,001,male,2023-05-16_10h12.10.387,openIAT,2020.1.0rc3,Win32,60,a,1,1.079,,,,,,,,1.079,1,0,12,12,12,1,stimuli/blank.png,Happy,a,,,,,,,,
,,,,,,,,,,,,,LingEx,2,001,male,2023-05-16_10h12.10.387,openIAT,2020.1.0rc3,Win32,60,a,1,1.141,,,,,,,,1.141,1,0,13,13,4,1,stimuli/black_3.jpg,,a,,,,,,,,
,,,,,,,,,,,,,LingEx,2,001,male,2023-05-16_10h12.10.387,openIAT,2020.1.0rc3,Win32,60,l,1,1.024,,,,,,,,1.024,1,0,14,14,1,1,stimuli/white_1.jpg,,l,,,,,,,,
,,,,,,,,,,,,,LingEx,2,001,male,2023-05-16_10h12.10.387,openIAT,2020.1.0rc3,Win32,60,a,1,0.781,,,,,,,,0.781,1,0,15,15,6,1,stimuli/black_4.jpg,,a,,,,,,,,
,,,,,,,,,,,,,LingEx,2,001,male,2023-05-16_10h12.10.387,openIAT,2020.1.0rc3,Win32,60,l,1,1.214,,,,,,,,1.214,1,0,16,16,7,1,stimuli/white_4.jpg,,l,,,,,,,,
,,,,,,,,,,,,,LingEx,2,001,male,2023-05-16_10h12.10.387,openIAT,2020.1.0rc3,Win32,60,a,1,1.482,,,,,,,,1.482,1,0,17,17,10,1,stimuli/blank.png,Good,a,,,,,,,,
,,,,,,,,,,,,,LingEx,2,001,male,2023-05-16_10h12.10.387,openIAT,2020.1.0rc3,Win32,60,a,1,0.88,,,,,,,,0.88,1,0,18,18,14,1,stimuli/blank.png,Pleasure,a,,,,,,,,
,,,,,,,,,,,,,LingEx,2,001,male,2023-05-16_10h12.10.387,openIAT,2020.1.0rc3,Win32,60,l,1,1.09,,,,,,,,1.09,1,0,19,19,5,1,stimuli/white_3.jpg,,l,,,,,,,,
,,,,,,,,,,,,,LingEx,2,001,male,2023-05-16_10h12.10.387,openIAT,2020.1.0rc3,Win32,60,,,,,,,,,,,,,,,,,,,,,0,2,2,2,1,incong_test.xlsx,"A = 
Black or 
Positive","L = 
White or 
Negative"
,,,,,,,,,,,,,LingEx,2,001,male,2023-05-16_10h12.10.387,openIAT,2020.1.0rc3,Win32,60,a,1,4.532,,,,,,,,4.532,1,0,0,0,3,1,stimuli/white_2.jpg,NaN,a,,,,,,,,
,,,,,,,,,,,,,LingEx,2,001,male,2023-05-16_10h12.10.387,openIAT,2020.1.0rc3,Win32,60,a,1,1.129,,,,,,,,1.129,1,0,1,1,7,1,stimuli/white_4.jpg,NaN,a,,,,,,,,
,,,,,,,,,,,,,LingEx,2,001,male,2023-05-16_10h12.10.387,openIAT,2020.1.0rc3,Win32,60,l,1,2.844,,,,,,,,2.844,1,0,2,2,0,1,stimuli/black_1.jpg,NaN,l,,,,,,,,
,,,,,,,,,,,,,LingEx,2,001,male,2023-05-16_10h12.10.387,openIAT,2020.1.0rc3,Win32,60,a,1,1.397,,,,,,,,1.397,1,0,3,3,5,1,stimuli/white_3.jpg,NaN,a,,,,,,,,
,,,,,,,,,,,,,LingEx,2,001,male,2023-05-16_10h12.10.387,openIAT,2020.1.0rc3,Win32,60,a,1,0.964,,,,,,,,0.964,1,0,4,4,9,1,stimuli/white_5.jpg,NaN,a,,,,,,,,
,,,,,,,,,,,,,LingEx,2,001,male,2023-05-16_10h12.10.387,openIAT,2020.1.0rc3,Win32,60,a,1,1.057,,,,,,,,1.057,1,0,5,5,1,1,stimuli/white_1.jpg,NaN,a,,,,,,,,
,,,,,,,,,,,,,LingEx,2,001,male,2023-05-16_10h12.10.387,openIAT,2020.1.0rc3,Win32,60,l,1,1.38,,,,,,,,1.38,1,0,6,6,6,1,stimuli/black_4.jpg,NaN,l,,,,,,,,
,,,,,,,,,,,,,LingEx,2,001,male,2023-05-16_10h12.10.387,openIAT,2020.1.0rc3,Win32,60,l,1,1.227,,,,,,,,1.227,1,0,7,7,4,1,stimuli/black_3.jpg,NaN,l,,,,,,,,
,,,,,,,,,,,,,LingEx,2,001,male,2023-05-16_10h12.10.387,openIAT,2020.1.0rc3,Win32,60,l,1,0.599,,,,,,,,0.599,1,0,8,8,2,1,stimuli/black_2.jpg,NaN,l,,,,,,,,
,,,,,,,,,,,,,LingEx,2,001,male,2023-05-16_10h12.10.387,openIAT,2020.1.0rc3,Win32,60,l,1,0.596,,,,,,,,0.596,1,0,9,9,8,1,stimuli/black_5.jpg,NaN,l,,,,,,,,
,,,,,,,,,,,,,LingEx,2,001,male,2023-05-16_10h12.10.387,openIAT,2020.1.0rc3,Win32,60,,,,,,,,,,,,,,,,,,,,,0,3,3,3,1,cong_train.xlsx,"A = 
White","L = 
Black"
,,,,,,,,,,,,,LingEx,2,001,male,2023-05-16_10h12.10.387,openIAT,2020.1.0rc3,Win32,60,a,1,3.06,,,,,,,,3.06,1,0,0,0,5,1,stimuli/white_3.jpg,NaN,a,,,,,,,,
,,,,,,,,,,,,,LingEx,2,001,male,2023-05-16_10h12.10.387,openIAT,2020.1.0rc3,Win32,60,l,1,2.614,,,,,,,,2.614,1,0,1,1,15,1,stimuli/blank.png,Agony,l,,,,,,,,
,,,,,,,,,,,,,LingEx,2,001,male,2023-05-16_10h12.10.387,openIAT,2020.1.0rc3,Win32,60,l,1,1.131,,,,,,,,1.131,1,0,2,2,19,1,stimuli/blank.png,Nasty,l,,,,,,,,
,,,,,,,,,,,,,LingEx,2,001,male,2023-05-16_10h12.10.387,openIAT,2020.1.0rc3,Win32,60,l,1,0.696,,,,,,,,0.696,1,0,3,3,11,1,stimuli/blank.png,Bad,l,,,,,,,,
,,,,,,,,,,,,,LingEx,2,001,male,2023-05-16_10h12.10.387,openIAT,2020.1.0rc3,Win32,60,a,1,1.059,,,,,,,,1.059,1,0,4,4,9,1,stimuli/white_5.jpg,NaN,a,,,,,,,,
,,,,,,,,,,,,,LingEx,2,001,male,2023-05-16_10h12.10.387,openIAT,2020.1.0rc3,Win32,60,l,1,1.543,,,,,,,,1.543,1,0,5,5,2,1,stimuli/black_2.jpg,NaN,l,,,,,,,,
,,,,,,,,,,,,,LingEx,2,001,male,2023-05-16_10h12.10.387,openIAT,2020.1.0rc3,Win32,60,l,1,0.764,,,,,,,,0.764,1,0,6,6,8,1,stimuli/black_5.jpg,NaN,l,,,,,,,,
,,,,,,,,,,,,,LingEx,2,001,male,2023-05-16_10h12.10.387,openIAT,2020.1.0rc3,Win32,60,l,1,0.627,,,,,,,,0.627,1,0,7,7,0,1,stimuli/black_1.jpg,NaN,l,,,,,,,,
,,,,,,,,,,,,,LingEx,2,001,male,2023-05-16_10h12.10.387,openIAT,2020.1.0rc3,Win32,60,l,1,0.665,,,,,,,,0.665,1,0,8,8,6,1,stimuli/black_4.jpg,NaN,l,,,,,,,,
,,,,,,,,,,,,,LingEx,2,001,male,2023-05-16_10h12.10.387,openIAT,2020.1.0rc3,Win32,60,a,1,1.46,,,,,,,,1.46,1,0,9,9,12,1,stimuli/blank.png,Happy,a,,,,,,,,
,,,,,,,,,,,,,LingEx,2,001,male,2023-05-16_10h12.10.387,openIAT,2020.1.0rc3,Win32,60,a,1,0.929,,,,,,,,0.929,1,0,10,10,16,1,stimuli/blank.png,Love,a,,,,,,,,
,,,,,,,,,,,,,LingEx,2,001,male,2023-05-16_10h12.10.387,openIAT,2020.1.0rc3,Win32,60,l,1,1.282,,,,,,,,1.282,1,0,11,11,4,1,stimuli/black_3.jpg,NaN,l,,,,,,,,
,,,,,,,,,,,,,LingEx,2,001,male,2023-05-16_10h12.10.387,openIAT,2020.1.0rc3,Win32,60,l,1,1.526,,,,,,,,1.526,1,0,12,12,13,1,stimuli/blank.png,Hurt,l,,,,,,,,
,,,,,,,,,,,,,LingEx,2,001,male,2023-05-16_10h12.10.387,openIAT,2020.1.0rc3,Win32,60,a,1,2.945,,,,,,,,2.945,1,0,13,13,18,1,stimuli/blank.png,Joy,a,,,,,,,,
,,,,,,,,,,,,,LingEx,2,001,male,2023-05-16_10h12.10.387,openIAT,2020.1.0rc3,Win32,60,a,1,1.083,,,,,,,,1.083,1,0,14,14,1,1,stimuli/white_1.jpg,NaN,a,,,,,,,,
,,,,,,,,,,,,,LingEx,2,001,male,2023-05-16_10h12.10.387,openIAT,2020.1.0rc3,Win32,60,a,1,0.932,,,,,,,,0.932,1,0,15,15,14,1,stimuli/blank.png,Pleasure,a,,,,,,,,
,,,,,,,,,,,,,LingEx,2,001,male,2023-05-16_10h12.10.387,openIAT,2020.1.0rc3,Win32,60,l,1,1.08,,,,,,,,1.08,1,0,16,16,17,1,stimuli/blank.png,Evil,l,,,,,,,,
,,,,,,,,,,,,,LingEx,2,001,male,2023-05-16_10h12.10.387,openIAT,2020.1.0rc3,Win32,60,a,1,1.493,,,,,,,,1.493,1,0,17,17,7,1,stimuli/white_4.jpg,NaN,a,,,,,,,,
,,,,,,,,,,,,,LingEx,2,001,male,2023-05-16_10h12.10.387,openIAT,2020.1.0rc3,Win32,60,a,1,1.028,,,,,,,,1.028,1,0,18,18,10,1,stimuli/blank.png,Good,a,,,,,,,,
,,,,,,,,,,,,,LingEx,2,001,male,2023-05-16_10h12.10.387,openIAT,2020.1.0rc3,Win32,60,a,1,0.851,,,,,,,,0.851,1,0,19,19,3,1,stimuli/white_2.jpg,NaN,a,,,,,,,,
