instr_done_touch.x,instr_done_touch.y,instr_done_touch.leftButton,instr_done_touch.midButton,instr_done_touch.rightButton,instr_done_touch.clicked_name,instruct_pages.thisRepN,instruct_pages.thisTrialN,instruct_pages.thisN,instruct_pages.thisIndex,instruct_pages.ran,pageN,instruct_text,participant,order,session,gender,date,expName,psychopyVersion,OS,frameRate,key_resp.keys,key_resp.corr,touch_resp.x,touch_resp.y,touch_resp.leftButton,touch_resp.midButton,touch_resp.rightButton,touch_resp.time,touch_resp.clicked_name,rt,corr,trials.thisRepN,trials.thisTrialN,trials.thisN,trials.thisIndex,trials.ran,stimImage,stimWord,CorrAns,blocks.thisRepN,blocks.thisTrialN,blocks.thisN,blocks.thisIndex,blocks.ran,conds_file,label_left,label_right
0.012965964,-0.381685575,1,0,0,instr_done_button,0,0,0,0,1,1,"You will be presented with words or images to classify into categories using either the 'A' or 'L' key. 
 
Try to go as fast as possible while making as few mistakes as possible. 
",luz,2,001,male,2023-04-15_09h42.33.559,openIAT,2020.1.0rc3,Win32,60,,,,,,,,,,,,,,,,,,,,,,,,,,,
0.05834684,-0.422204214,1,0,0,instr_done_button,0,1,1,1,1,2,"Keep in mind: 
 
1) Labels at the top of the screen indicate which catogory goes with which key. 
 
2) Each word or image has a correct catogory classification 
 
3) Keep your index fingers on the A and L keys to enable a rapid response. 
 
4) The test gives no results if you go slow- please try to go as fast as possible 
",luz,2,001,male,2023-04-15_09h42.33.559,openIAT,2020.1.0rc3,Win32,60,,,,,,,,,,,,,,,,,,,,,,,,,,,
,,,,,,,,,,,,,luz,2,001,male,2023-04-15_09h42.33.559,openIAT,2020.1.0rc3,Win32,60,,0,0.359805511,-0.347649919,1,0,0,86.6724,button_right,86.6724,1,0,0,0,1,1,stimuli/blank.png,Bad,l,,,,,,,,
,,,,,,,,,,,,,luz,2,001,male,2023-04-15_09h42.33.559,openIAT,2020.1.0rc3,Win32,60,,0,0.223662885,-0.277957861,1,0,0,3.4522,button_right,3.4522,0,0,1,1,8,1,stimuli/blank.png,Joy,a,,,,,,,,
,,,,,,,,,,,,,luz,2,001,male,2023-04-15_09h42.33.559,openIAT,2020.1.0rc3,Win32,60,,0,0.320907618,-0.302269044,1,0,0,0.6664,button_right,0.6664,0,0,2,2,4,1,stimuli/blank.png,Pleasure,a,,,,,,,,
,,,,,,,,,,,,,luz,2,001,male,2023-04-15_09h42.33.559,openIAT,2020.1.0rc3,Win32,60,,0,-0.316045381,-0.352512156,1,0,0,1.0859,button_left,1.0859,1,0,3,3,2,1,stimuli/blank.png,Happy,a,,,,,,,,
,,,,,,,,,,,,,luz,2,001,male,2023-04-15_09h42.33.559,openIAT,2020.1.0rc3,Win32,60,,0,-0.311183144,-0.323338736,1,0,0,0.9658,button_left,0.9658,1,0,4,4,0,1,stimuli/blank.png,Good,a,,,,,,,,
,,,,,,,,,,,,,luz,2,001,male,2023-04-15_09h42.33.559,openIAT,2020.1.0rc3,Win32,60,,0,-0.307941653,-0.323338736,1,0,0,1.0497,button_left,1.0497,0,0,5,5,9,1,stimuli/blank.png,Nasty,l,,,,,,,,
,,,,,,,,,,,,,luz,2,001,male,2023-04-15_09h42.33.559,openIAT,2020.1.0rc3,Win32,60,,0,0.345218801,-0.313614263,1,0,0,1.4499,button_right,1.4499,1,0,6,6,7,1,stimuli/blank.png,Evil,l,,,,,,,,
,,,,,,,,,,,,,luz,2,001,male,2023-04-15_09h42.33.559,openIAT,2020.1.0rc3,Win32,60,,0,-0.468395462,-0.357374392,1,0,0,1.0837,button_left,1.0837,1,0,7,7,6,1,stimuli/blank.png,Love,a,,,,,,,,
,,,,,,,,,,,,,luz,2,001,male,2023-04-15_09h42.33.559,openIAT,2020.1.0rc3,Win32,60,,0,-0.337115073,-0.342787682,1,0,0,1.1783,button_left,1.1783,0,0,8,8,3,1,stimuli/blank.png,Hurt,l,,,,,,,,
,,,,,,,,,,,,,luz,2,001,male,2023-04-15_09h42.33.559,openIAT,2020.1.0rc3,Win32,60,,0,-0.317666126,-0.342787682,1,0,0,0.7165,button_left,0.7165,0,0,9,9,5,1,stimuli/blank.png,Agony,l,,,,,,,,
,,,,,,,,,,,,,luz,2,001,male,2023-04-15_09h42.33.559,openIAT,2020.1.0rc3,Win32,60,,,,,,,,,,,,,,,,,,,,0,0,0,0,1,pos_neg_train.xlsx,"A = 
Positive","L = 
Negative"
,,,,,,,,,,,,,luz,2,001,male,2023-04-15_09h42.33.559,openIAT,2020.1.0rc3,Win32,60,,0,-0.338735818,-0.328200972,1,0,0,4.3994,button_left,4.3994,0,0,0,0,1,1,stimuli/white_1.jpg,,l,,,,,,,,
,,,,,,,,,,,,,luz,2,001,male,2023-04-15_09h42.33.559,openIAT,2020.1.0rc3,Win32,60,,0,-0.301458671,-0.326580227,1,0,0,1.5459,button_left,1.5459,0,0,1,1,7,1,stimuli/white_4.jpg,,l,,,,,,,,
,,,,,,,,,,,,,luz,2,001,male,2023-04-15_09h42.33.559,openIAT,2020.1.0rc3,Win32,60,,0,0.337115073,-0.290923825,1,0,0,1.2001,button_right,1.2001,0,0,2,2,0,1,stimuli/black_1.jpg,,a,,,,,,,,
,,,,,,,,,,,,,luz,2,001,male,2023-04-15_09h42.33.559,openIAT,2020.1.0rc3,Win32,60,,0,0.354943274,-0.313614263,1,0,0,0.9311,button_right,0.9311,0,0,3,3,6,1,stimuli/black_4.jpg,,a,,,,,,,,
,,,,,,,,,,,,,luz,2,001,male,2023-04-15_09h42.33.559,openIAT,2020.1.0rc3,Win32,60,,0,0.369529984,-0.324959481,1,0,0,0.7847,button_right,0.7847,0,0,4,4,8,1,stimuli/black_5.jpg,,a,,,,,,,,
,,,,,,,,,,,,,luz,2,001,male,2023-04-15_09h42.33.559,openIAT,2020.1.0rc3,Win32,60,,0,-0.4910859,-0.310372771,1,0,0,1.0868,button_left,1.0868,0,0,5,5,3,1,stimuli/white_2.jpg,,l,,,,,,,,
,,,,,,,,,,,,,luz,2,001,male,2023-04-15_09h42.33.559,openIAT,2020.1.0rc3,Win32,60,,0,0.367909238,-0.315235008,1,0,0,0.7122,button_right,0.7122,0,0,6,6,2,1,stimuli/black_2.jpg,,a,,,,,,,,
,,,,,,,,,,,,,luz,2,001,male,2023-04-15_09h42.33.559,openIAT,2020.1.0rc3,Win32,60,,0,0.320907618,-0.299027553,1,0,0,2.9031,button_right,2.9031,0,0,7,7,4,1,stimuli/black_3.jpg,,a,,,,,,,,
,,,,,,,,,,,,,luz,2,001,male,2023-04-15_09h42.33.559,openIAT,2020.1.0rc3,Win32,60,,0,-0.223662885,-0.329821718,1,0,0,1.0582,button_left,1.0582,0,0,8,8,5,1,stimuli/white_3.jpg,,l,,,,,,,,
,,,,,,,,,,,,,luz,2,001,male,2023-04-15_09h42.33.559,openIAT,2020.1.0rc3,Win32,60,,0,0.3273906,-0.341166937,1,0,0,0.9011,button_right,0.9011,1,0,9,9,9,1,stimuli/white_5.jpg,,l,,,,,,,,
,,,,,,,,,,,,,luz,2,001,male,2023-04-15_09h42.33.559,openIAT,2020.1.0rc3,Win32,60,,,,,,,,,,,,,,,,,,,,0,1,1,1,1,incong_train.xlsx,"A = 
Black","L = 
White"
,,,,,,,,,,,,,luz,2,001,male,2023-04-15_09h42.33.559,openIAT,2020.1.0rc3,Win32,60,,0,-0.423014587,-0.264991896,1,0,0,7.4336,button_left,7.4336,0,0,0,0,11,1,stimuli/blank.png,Bad,l,,,,,,,,
,,,,,,,,,,,,,luz,2,001,male,2023-04-15_09h42.33.559,openIAT,2020.1.0rc3,Win32,60,,0,0.364667747,-0.418962723,1,0,0,64.869,button_right,64.869,0,0,1,1,2,1,stimuli/black_2.jpg,,a,,,,,,,,
,,,,,,,,,,,,,luz,2,001,male,2023-04-15_09h42.33.559,openIAT,2020.1.0rc3,Win32,60,,0,-0.350081037,-0.329821718,1,0,0,16.582,button_left,16.582,0,0,2,2,1,1,stimuli/white_1.jpg,,l,,,,,,,,
,,,,,,,,,,,,,luz,2,001,male,2023-04-15_09h42.33.559,openIAT,2020.1.0rc3,Win32,60,,0,0.421393841,-0.337925446,1,0,0,18.164,button_right,18.164,0,0,3,3,10,1,stimuli/blank.png,Good,a,,,,,,,,
,,,,,,,,,,,,,luz,2,001,male,2023-04-15_09h42.33.559,openIAT,2020.1.0rc3,Win32,60,,0,-0.350081037,-0.337925446,1,0,0,1.4778,button_left,1.4778,1,0,4,4,6,1,stimuli/black_4.jpg,,a,,,,,,,,
,,,,,,,,,,,,,luz,2,001,male,2023-04-15_09h42.33.559,openIAT,2020.1.0rc3,Win32,60,,0,-0.330632091,-0.302269044,1,0,0,1.2659,button_left,1.2659,0,0,5,5,19,1,stimuli/blank.png,Nasty,l,,,,,,,,
,,,,,,,,,,,,,luz,2,001,male,2023-04-15_09h42.33.559,openIAT,2020.1.0rc3,Win32,60,,0,-0.330632091,-0.302269044,1,0,0,0.5205,button_left,0.5205,0,0,6,6,9,1,stimuli/white_5.jpg,,l,,,,,,,,
,,,,,,,,,,,,,luz,2,001,male,2023-04-15_09h42.33.559,openIAT,2020.1.0rc3,Win32,60,,0,-0.330632091,-0.302269044,1,0,0,0.6341,button_left,0.6341,1,0,7,7,8,1,stimuli/black_5.jpg,,a,,,,,,,,
,,,,,,,,,,,,,luz,2,001,male,2023-04-15_09h42.33.559,openIAT,2020.1.0rc3,Win32,60,,0,0.380875203,-0.299027553,1,0,0,0.486,button_right,0.486,1,0,8,8,17,1,stimuli/blank.png,Evil,l,,,,,,,,
,,,,,,,,,,,,,luz,2,001,male,2023-04-15_09h42.33.559,openIAT,2020.1.0rc3,Win32,60,,0,0.380875203,-0.299027553,1,0,0,0.5641,button_right,0.5641,0,0,9,9,12,1,stimuli/blank.png,Happy,a,,,,,,,,
,,,,,,,,,,,,,luz,2,001,male,2023-04-15_09h42.33.559,openIAT,2020.1.0rc3,Win32,60,,0,0.380875203,-0.299027553,1,0,0,1.0273,button_right,1.0273,0,0,10,10,18,1,stimuli/blank.png,Joy,a,,,,,,,,
,,,,,,,,,,,,,luz,2,001,male,2023-04-15_09h42.33.559,openIAT,2020.1.0rc3,Win32,60,,0,0.380875203,-0.299027553,1,0,0,0.5441,button_right,0.5441,1,0,11,11,15,1,stimuli/blank.png,Agony,l,,,,,,,,
,,,,,,,,,,,,,luz,2,001,male,2023-04-15_09h42.33.559,openIAT,2020.1.0rc3,Win32,60,,0,0.316045381,-0.30713128,1,0,0,21.3818,button_right,21.3818,1,0,12,12,13,1,stimuli/blank.png,Hurt,l,,,,,,,,
,,,,,,,,,,,,,luz,2,001,male,2023-04-15_09h42.33.559,openIAT,2020.1.0rc3,Win32,60,,0,-0.338735818,-0.347649919,1,0,0,10.5195,button_left,10.5195,1,0,13,13,16,1,stimuli/blank.png,Love,a,,,,,,,,
,,,,,,,,,,,,,luz,2,001,male,2023-04-15_09h42.33.559,openIAT,2020.1.0rc3,Win32,60,,0,0.379254457,-0.311993517,1,0,0,0.4092,button_right,0.4092,1,0,14,14,7,1,stimuli/white_4.jpg,,l,,,,,,,,
,,,,,,,,,,,,,luz,2,001,male,2023-04-15_09h42.33.559,openIAT,2020.1.0rc3,Win32,60,,0,0.380875203,-0.32171799,1,0,0,0.4697,button_right,0.4697,0,0,15,15,0,1,stimuli/black_1.jpg,,a,,,,,,,,
,,,,,,,,,,,,,luz,2,001,male,2023-04-15_09h42.33.559,openIAT,2020.1.0rc3,Win32,60,,0,0.380875203,-0.32171799,1,0,0,0.499,button_right,0.499,0,0,16,16,14,1,stimuli/blank.png,Pleasure,a,,,,,,,,
,,,,,,,,,,,,,luz,2,001,male,2023-04-15_09h42.33.559,openIAT,2020.1.0rc3,Win32,60,,0,-0.309562399,-0.313614263,1,0,0,0.3619,button_left,0.3619,0,0,17,17,3,1,stimuli/white_2.jpg,,l,,,,,,,,
,,,,,,,,,,,,,luz,2,001,male,2023-04-15_09h42.33.559,openIAT,2020.1.0rc3,Win32,60,,0,-0.309562399,-0.313614263,1,0,0,0.4388,button_left,0.4388,0,0,18,18,5,1,stimuli/white_3.jpg,,l,,,,,,,,
,,,,,,,,,,,,,luz,2,001,male,2023-04-15_09h42.33.559,openIAT,2020.1.0rc3,Win32,60,,0,-0.299837925,-0.318476499,1,0,0,0.5134,button_left,0.5134,1,0,19,19,4,1,stimuli/black_3.jpg,,a,,,,,,,,
,,,,,,,,,,,,,luz,2,001,male,2023-04-15_09h42.33.559,openIAT,2020.1.0rc3,Win32,60,,,,,,,,,,,,,,,,,,,,0,2,2,2,1,incong_test.xlsx,"A = 
Black or 
Positive","L = 
White or 
Negative"
,,,,,,,,,,,,,luz,2,001,male,2023-04-15_09h42.33.559,openIAT,2020.1.0rc3,Win32,60,,0,0.324149109,-0.328200972,1,0,0,2.2049,button_right,2.2049,1,0,0,0,8,1,stimuli/black_5.jpg,NaN,l,,,,,,,,
,,,,,,,,,,,,,luz,2,001,male,2023-04-15_09h42.33.559,openIAT,2020.1.0rc3,Win32,60,,0,0.340356564,-0.328200972,1,0,0,0.7708,button_right,0.7708,0,0,1,1,9,1,stimuli/white_5.jpg,NaN,a,,,,,,,,
,,,,,,,,,,,,,luz,2,001,male,2023-04-15_09h42.33.559,openIAT,2020.1.0rc3,Win32,60,,0,-0.384116694,-0.323338736,1,0,0,1.4287,button_left,1.4287,1,0,2,2,1,1,stimuli/white_1.jpg,NaN,a,,,,,,,,
,,,,,,,,,,,,,luz,2,001,male,2023-04-15_09h42.33.559,openIAT,2020.1.0rc3,Win32,60,,0,-0.376012966,-0.331442464,1,0,0,0.7844,button_left,0.7844,1,0,3,3,7,1,stimuli/white_4.jpg,NaN,a,,,,,,,,
,,,,,,,,,,,,,luz,2,001,male,2023-04-15_09h42.33.559,openIAT,2020.1.0rc3,Win32,60,,0,-0.376012966,-0.331442464,1,0,0,0.6702,button_left,0.6702,1,0,4,4,3,1,stimuli/white_2.jpg,NaN,a,,,,,,,,
,,,,,,,,,,,,,luz,2,001,male,2023-04-15_09h42.33.559,openIAT,2020.1.0rc3,Win32,60,,0,-0.376012966,-0.331442464,1,0,0,0.7699,button_left,0.7699,0,0,5,5,2,1,stimuli/black_2.jpg,NaN,l,,,,,,,,
,,,,,,,,,,,,,luz,2,001,male,2023-04-15_09h42.33.559,openIAT,2020.1.0rc3,Win32,60,,0,0.405186386,-0.36547812,1,0,0,1.9312,button_right,1.9312,1,0,6,6,4,1,stimuli/black_3.jpg,NaN,l,,,,,,,,
,,,,,,,,,,,,,luz,2,001,male,2023-04-15_09h42.33.559,openIAT,2020.1.0rc3,Win32,60,,0,-0.333873582,-0.303889789,1,0,0,1.117,button_left,1.117,1,0,7,7,5,1,stimuli/white_3.jpg,NaN,a,,,,,,,,
,,,,,,,,,,,,,luz,2,001,male,2023-04-15_09h42.33.559,openIAT,2020.1.0rc3,Win32,60,,0,0.387358185,-0.337925446,1,0,0,0.5532,button_right,0.5532,1,0,8,8,6,1,stimuli/black_4.jpg,NaN,l,,,,,,,,
,,,,,,,,,,,,,luz,2,001,male,2023-04-15_09h42.33.559,openIAT,2020.1.0rc3,Win32,60,,0,0.325769854,-0.362236629,1,0,0,1.403,button_right,1.403,1,0,9,9,0,1,stimuli/black_1.jpg,NaN,l,,,,,,,,
,,,,,,,,,,,,,luz,2,001,male,2023-04-15_09h42.33.559,openIAT,2020.1.0rc3,Win32,60,,,,,,,,,,,,,,,,,,,,0,3,3,3,1,cong_train.xlsx,"A = 
White","L = 
Black"
,,,,,,,,,,,,,luz,2,001,male,2023-04-15_09h42.33.559,openIAT,2020.1.0rc3,Win32,60,,0,0.379254457,-0.315235008,1,0,0,4.7518,button_right,4.7518,1,0,0,0,2,1,stimuli/black_2.jpg,NaN,l,,,,,,,,
,,,,,,,,,,,,,luz,2,001,male,2023-04-15_09h42.33.559,openIAT,2020.1.0rc3,Win32,60,,0,0.379254457,-0.315235008,1,0,0,0.3982,button_right,0.3982,0,0,1,1,7,1,stimuli/white_4.jpg,NaN,a,,,,,,,,
,,,,,,,,,,,,,luz,2,001,male,2023-04-15_09h42.33.559,openIAT,2020.1.0rc3,Win32,60,,0,0.379254457,-0.315235008,1,0,0,0.7008,button_right,0.7008,1,0,2,2,13,1,stimuli/blank.png,Hurt,l,,,,,,,,
,,,,,,,,,,,,,luz,2,001,male,2023-04-15_09h42.33.559,openIAT,2020.1.0rc3,Win32,60,,0,0.379254457,-0.315235008,1,0,0,0.3297,button_right,0.3297,1,0,3,3,15,1,stimuli/blank.png,Agony,l,,,,,,,,
,,,,,,,,,,,,,luz,2,001,male,2023-04-15_09h42.33.559,openIAT,2020.1.0rc3,Win32,60,,0,0.379254457,-0.315235008,1,0,0,0.6161,button_right,0.6161,1,0,4,4,19,1,stimuli/blank.png,Nasty,l,,,,,,,,
,,,,,,,,,,,,,luz,2,001,male,2023-04-15_09h42.33.559,openIAT,2020.1.0rc3,Win32,60,,0,0.379254457,-0.315235008,1,0,0,0.2967,button_right,0.2967,0,0,5,5,9,1,stimuli/white_5.jpg,NaN,a,,,,,,,,
,,,,,,,,,,,,,luz,2,001,male,2023-04-15_09h42.33.559,openIAT,2020.1.0rc3,Win32,60,,0,0.379254457,-0.315235008,1,0,0,0.4,button_right,0.4,0,0,6,6,12,1,stimuli/blank.png,Happy,a,,,,,,,,
,,,,,,,,,,,,,luz,2,001,male,2023-04-15_09h42.33.559,openIAT,2020.1.0rc3,Win32,60,,0,0.379254457,-0.315235008,1,0,0,0.4338,button_right,0.4338,0,0,7,7,1,1,stimuli/white_1.jpg,NaN,a,,,,,,,,
,,,,,,,,,,,,,luz,2,001,male,2023-04-15_09h42.33.559,openIAT,2020.1.0rc3,Win32,60,,0,0.380875203,-0.315235008,1,0,0,0.6853,button_right,0.6853,0,0,8,8,18,1,stimuli/blank.png,Joy,a,,,,,,,,
,,,,,,,,,,,,,luz,2,001,male,2023-04-15_09h42.33.559,openIAT,2020.1.0rc3,Win32,60,,0,-0.333873582,-0.240680713,1,0,0,1.1976,button_left,1.1976,0,0,9,9,0,1,stimuli/black_1.jpg,NaN,l,,,,,,,,
,,,,,,,,,,,,,luz,2,001,male,2023-04-15_09h42.33.559,openIAT,2020.1.0rc3,Win32,60,,0,-0.333873582,-0.239059968,1,0,0,0.5674,button_left,0.5674,0,0,10,10,6,1,stimuli/black_4.jpg,NaN,l,,,,,,,,
,,,,,,,,,,,,,luz,2,001,male,2023-04-15_09h42.33.559,openIAT,2020.1.0rc3,Win32,60,,0,-0.34197731,-0.269854133,1,0,0,1.1304,button_left,1.1304,0,0,11,11,17,1,stimuli/blank.png,Evil,l,,,,,,,,
,,,,,,,,,,,,,luz,2,001,male,2023-04-15_09h42.33.559,openIAT,2020.1.0rc3,Win32,60,,0,-0.34197731,-0.269854133,1,0,0,0.5813,button_left,0.5813,1,0,12,12,10,1,stimuli/blank.png,Good,a,,,,,,,,
,,,,,,,,,,,,,luz,2,001,male,2023-04-15_09h42.33.559,openIAT,2020.1.0rc3,Win32,60,,0,-0.304700162,-0.299027553,1,0,0,0.4305,button_left,0.4305,0,0,13,13,11,1,stimuli/blank.png,Bad,l,,,,,,,,
,,,,,,,,,,,,,luz,2,001,male,2023-04-15_09h42.33.559,openIAT,2020.1.0rc3,Win32,60,,0,-0.304700162,-0.299027553,1,0,0,0.7171,button_left,0.7171,1,0,14,14,5,1,stimuli/white_3.jpg,NaN,a,,,,,,,,
,,,,,,,,,,,,,luz,2,001,male,2023-04-15_09h42.33.559,openIAT,2020.1.0rc3,Win32,60,,0,-0.301458671,-0.282820097,1,0,0,3.4781,button_left,3.4781,1,0,15,15,16,1,stimuli/blank.png,Love,a,,,,,,,,
,,,,,,,,,,,,,luz,2,001,male,2023-04-15_09h42.33.559,openIAT,2020.1.0rc3,Win32,60,,0,0.359805511,-0.355753647,1,0,0,1.2441,button_right,1.2441,0,0,16,16,14,1,stimuli/blank.png,Pleasure,a,,,,,,,,
,,,,,,,,,,,,,luz,2,001,male,2023-04-15_09h42.33.559,openIAT,2020.1.0rc3,Win32,60,,0,0.359805511,-0.355753647,1,0,0,0.6517,button_right,0.6517,1,0,17,17,8,1,stimuli/black_5.jpg,NaN,l,,,,,,,,
,,,,,,,,,,,,,luz,2,001,male,2023-04-15_09h42.33.559,openIAT,2020.1.0rc3,Win32,60,,0,0.359805511,-0.355753647,1,0,0,2.1853,button_right,2.1853,1,0,18,18,4,1,stimuli/black_3.jpg,NaN,l,,,,,,,,
,,,,,,,,,,,,,luz,2,001,male,2023-04-15_09h42.33.559,openIAT,2020.1.0rc3,Win32,60,,0,0.359805511,-0.355753647,1,0,0,0.6487,button_right,0.6487,0,0,19,19,3,1,stimuli/white_2.jpg,NaN,a,,,,,,,,
