instr_done_touch.x,instr_done_touch.y,instr_done_touch.leftButton,instr_done_touch.midButton,instr_done_touch.rightButton,instr_done_touch.clicked_name,instruct_pages.thisRepN,instruct_pages.thisTrialN,instruct_pages.thisN,instruct_pages.thisIndex,instruct_pages.ran,pageN,instruct_text,participant,order,session,gender,date,expName,psychopyVersion,OS,frameRate,key_resp.keys,key_resp.corr,key_resp.rt,touch_resp.x,touch_resp.y,touch_resp.leftButton,touch_resp.midButton,touch_resp.rightButton,touch_resp.time,touch_resp.clicked_name,rt,corr,trials.thisRepN,trials.thisTrialN,trials.thisN,trials.thisIndex,trials.ran,stimImage,stimWord,CorrAns,blocks.thisRepN,blocks.thisTrialN,blocks.thisN,blocks.thisIndex,blocks.ran,conds_file,label_left,label_right
0.107144097,-0.384231771,1,0,0,instr_done_button,0,0,0,0,1,1,"You will be presented with words or images to classify into categories using either the 'A' or 'L' key. 
 
Try to go as fast as possible while making as few mistakes as possible. 
",mati,2,001,female,2023-08-11_18h36.08.583,openIAT,2020.1.0rc3,MacIntel,60,,,,,,,,,,,,,,,,,,,,,,,,,,,,
0.098940972,-0.417174479,1,0,0,instr_done_button,0,1,1,1,1,2,"Keep in mind: 
 
1) Labels at the top of the screen indicate which catogory goes with which key. 
 
2) Each word or image has a correct catogory classification 
 
3) Keep your index fingers on the A and L keys to enable a rapid response. 
 
4) The test gives no results if you go slow- please try to go as fast as possible 
",mati,2,001,female,2023-08-11_18h36.08.583,openIAT,2020.1.0rc3,MacIntel,60,,,,,,,,,,,,,,,,,,,,,,,,,,,,
,,,,,,,,,,,,,mati,2,001,female,2023-08-11_18h36.08.583,openIAT,2020.1.0rc3,MacIntel,60,a,1,1.6921,,,,,,,,1.6921,1,0,0,0,8,1,stimuli/blank.png,Joy,a,,,,,,,,
,,,,,,,,,,,,,mati,2,001,female,2023-08-11_18h36.08.583,openIAT,2020.1.0rc3,MacIntel,60,l,1,0.9788,,,,,,,,0.9788,1,0,1,1,9,1,stimuli/blank.png,Nasty,l,,,,,,,,
,,,,,,,,,,,,,mati,2,001,female,2023-08-11_18h36.08.583,openIAT,2020.1.0rc3,MacIntel,60,l,1,0.7048,,,,,,,,0.7048,1,0,2,2,1,1,stimuli/blank.png,Bad,l,,,,,,,,
,,,,,,,,,,,,,mati,2,001,female,2023-08-11_18h36.08.583,openIAT,2020.1.0rc3,MacIntel,60,l,1,0.6022,,,,,,,,0.6022,1,0,3,3,5,1,stimuli/blank.png,Agony,l,,,,,,,,
,,,,,,,,,,,,,mati,2,001,female,2023-08-11_18h36.08.583,openIAT,2020.1.0rc3,MacIntel,60,l,1,0.6783,,,,,,,,0.6783,1,0,4,4,3,1,stimuli/blank.png,Hurt,l,,,,,,,,
,,,,,,,,,,,,,mati,2,001,female,2023-08-11_18h36.08.583,openIAT,2020.1.0rc3,MacIntel,60,l,1,0.6567,,,,,,,,0.6567,1,0,5,5,7,1,stimuli/blank.png,Evil,l,,,,,,,,
,,,,,,,,,,,,,mati,2,001,female,2023-08-11_18h36.08.583,openIAT,2020.1.0rc3,MacIntel,60,a,1,0.6303,,,,,,,,0.6303,1,0,6,6,0,1,stimuli/blank.png,Good,a,,,,,,,,
,,,,,,,,,,,,,mati,2,001,female,2023-08-11_18h36.08.583,openIAT,2020.1.0rc3,MacIntel,60,a,1,0.6663,,,,,,,,0.6663,1,0,7,7,4,1,stimuli/blank.png,Pleasure,a,,,,,,,,
,,,,,,,,,,,,,mati,2,001,female,2023-08-11_18h36.08.583,openIAT,2020.1.0rc3,MacIntel,60,a,1,0.6788,,,,,,,,0.6788,1,0,8,8,6,1,stimuli/blank.png,Love,a,,,,,,,,
,,,,,,,,,,,,,mati,2,001,female,2023-08-11_18h36.08.583,openIAT,2020.1.0rc3,MacIntel,60,a,1,0.6897,,,,,,,,0.6897,1,0,9,9,2,1,stimuli/blank.png,Happy,a,,,,,,,,
,,,,,,,,,,,,,mati,2,001,female,2023-08-11_18h36.08.583,openIAT,2020.1.0rc3,MacIntel,60,,,,,,,,,,,,,,,,,,,,,0,0,0,0,1,pos_neg_train.xlsx,"A = 
Positive","L = 
Negative"
,,,,,,,,,,,,,mati,2,001,female,2023-08-11_18h36.08.583,openIAT,2020.1.0rc3,MacIntel,60,l,0,1.2013,,,,,,,,1.2013,0,0,0,0,0,1,stimuli/black_1.jpg,,a,,,,,,,,
,,,,,,,,,,,,,mati,2,001,female,2023-08-11_18h36.08.583,openIAT,2020.1.0rc3,MacIntel,60,a,1,1.1666,,,,,,,,1.1666,1,0,1,1,4,1,stimuli/black_3.jpg,,a,,,,,,,,
,,,,,,,,,,,,,mati,2,001,female,2023-08-11_18h36.08.583,openIAT,2020.1.0rc3,MacIntel,60,a,1,0.868,,,,,,,,0.868,1,0,2,2,6,1,stimuli/black_4.jpg,,a,,,,,,,,
,,,,,,,,,,,,,mati,2,001,female,2023-08-11_18h36.08.583,openIAT,2020.1.0rc3,MacIntel,60,l,1,0.8052,,,,,,,,0.8052,1,0,3,3,7,1,stimuli/white_4.jpg,,l,,,,,,,,
,,,,,,,,,,,,,mati,2,001,female,2023-08-11_18h36.08.583,openIAT,2020.1.0rc3,MacIntel,60,l,1,0.6882,,,,,,,,0.6882,1,0,4,4,5,1,stimuli/white_3.jpg,,l,,,,,,,,
,,,,,,,,,,,,,mati,2,001,female,2023-08-11_18h36.08.583,openIAT,2020.1.0rc3,MacIntel,60,l,1,0.9233,,,,,,,,0.9233,1,0,5,5,1,1,stimuli/white_1.jpg,,l,,,,,,,,
,,,,,,,,,,,,,mati,2,001,female,2023-08-11_18h36.08.583,openIAT,2020.1.0rc3,MacIntel,60,l,1,0.8771,,,,,,,,0.8771,1,0,6,6,3,1,stimuli/white_2.jpg,,l,,,,,,,,
,,,,,,,,,,,,,mati,2,001,female,2023-08-11_18h36.08.583,openIAT,2020.1.0rc3,MacIntel,60,l,1,0.5056,,,,,,,,0.5056,1,0,7,7,9,1,stimuli/white_5.jpg,,l,,,,,,,,
,,,,,,,,,,,,,mati,2,001,female,2023-08-11_18h36.08.583,openIAT,2020.1.0rc3,MacIntel,60,a,1,0.7727,,,,,,,,0.7727,1,0,8,8,2,1,stimuli/black_2.jpg,,a,,,,,,,,
,,,,,,,,,,,,,mati,2,001,female,2023-08-11_18h36.08.583,openIAT,2020.1.0rc3,MacIntel,60,a,1,0.6563,,,,,,,,0.6563,1,0,9,9,8,1,stimuli/black_5.jpg,,a,,,,,,,,
,,,,,,,,,,,,,mati,2,001,female,2023-08-11_18h36.08.583,openIAT,2020.1.0rc3,MacIntel,60,,,,,,,,,,,,,,,,,,,,,0,1,1,1,1,incong_train.xlsx,"A = 
Black","L = 
White"
,,,,,,,,,,,,,mati,2,001,female,2023-08-11_18h36.08.583,openIAT,2020.1.0rc3,MacIntel,60,a,1,2.5844,,,,,,,,2.5844,1,0,0,0,12,1,stimuli/blank.png,Happy,a,,,,,,,,
,,,,,,,,,,,,,mati,2,001,female,2023-08-11_18h36.08.583,openIAT,2020.1.0rc3,MacIntel,60,l,1,0.7762,,,,,,,,0.7762,1,0,1,1,17,1,stimuli/blank.png,Evil,l,,,,,,,,
,,,,,,,,,,,,,mati,2,001,female,2023-08-11_18h36.08.583,openIAT,2020.1.0rc3,MacIntel,60,l,1,0.7261,,,,,,,,0.7261,1,0,2,2,3,1,stimuli/white_2.jpg,,l,,,,,,,,
,,,,,,,,,,,,,mati,2,001,female,2023-08-11_18h36.08.583,openIAT,2020.1.0rc3,MacIntel,60,l,1,0.6111,,,,,,,,0.6111,1,0,3,3,7,1,stimuli/white_4.jpg,,l,,,,,,,,
,,,,,,,,,,,,,mati,2,001,female,2023-08-11_18h36.08.583,openIAT,2020.1.0rc3,MacIntel,60,l,1,0.8997,,,,,,,,0.8997,1,0,4,4,19,1,stimuli/blank.png,Nasty,l,,,,,,,,
,,,,,,,,,,,,,mati,2,001,female,2023-08-11_18h36.08.583,openIAT,2020.1.0rc3,MacIntel,60,a,1,0.6029,,,,,,,,0.6029,1,0,5,5,16,1,stimuli/blank.png,Love,a,,,,,,,,
,,,,,,,,,,,,,mati,2,001,female,2023-08-11_18h36.08.583,openIAT,2020.1.0rc3,MacIntel,60,l,0,0.8105,,,,,,,,0.8105,0,0,6,6,8,1,stimuli/black_5.jpg,,a,,,,,,,,
,,,,,,,,,,,,,mati,2,001,female,2023-08-11_18h36.08.583,openIAT,2020.1.0rc3,MacIntel,60,a,1,0.3269,,,,,,,,0.3269,1,0,7,7,10,1,stimuli/blank.png,Good,a,,,,,,,,
,,,,,,,,,,,,,mati,2,001,female,2023-08-11_18h36.08.583,openIAT,2020.1.0rc3,MacIntel,60,a,1,1.0161,,,,,,,,1.0161,1,0,8,8,2,1,stimuli/black_2.jpg,,a,,,,,,,,
,,,,,,,,,,,,,mati,2,001,female,2023-08-11_18h36.08.583,openIAT,2020.1.0rc3,MacIntel,60,l,1,0.9923,,,,,,,,0.9923,1,0,9,9,5,1,stimuli/white_3.jpg,,l,,,,,,,,
,,,,,,,,,,,,,mati,2,001,female,2023-08-11_18h36.08.583,openIAT,2020.1.0rc3,MacIntel,60,a,1,0.7916,,,,,,,,0.7916,1,0,10,10,14,1,stimuli/blank.png,Pleasure,a,,,,,,,,
,,,,,,,,,,,,,mati,2,001,female,2023-08-11_18h36.08.583,openIAT,2020.1.0rc3,MacIntel,60,a,1,1.3089,,,,,,,,1.3089,1,0,11,11,18,1,stimuli/blank.png,Joy,a,,,,,,,,
,,,,,,,,,,,,,mati,2,001,female,2023-08-11_18h36.08.583,openIAT,2020.1.0rc3,MacIntel,60,a,1,0.8973,,,,,,,,0.8973,1,0,12,12,6,1,stimuli/black_4.jpg,,a,,,,,,,,
,,,,,,,,,,,,,mati,2,001,female,2023-08-11_18h36.08.583,openIAT,2020.1.0rc3,MacIntel,60,l,1,0.7777,,,,,,,,0.7777,1,0,13,13,11,1,stimuli/blank.png,Bad,l,,,,,,,,
,,,,,,,,,,,,,mati,2,001,female,2023-08-11_18h36.08.583,openIAT,2020.1.0rc3,MacIntel,60,l,1,1.2429,,,,,,,,1.2429,1,0,14,14,9,1,stimuli/white_5.jpg,,l,,,,,,,,
,,,,,,,,,,,,,mati,2,001,female,2023-08-11_18h36.08.583,openIAT,2020.1.0rc3,MacIntel,60,l,1,1.6288,,,,,,,,1.6288,1,0,15,15,15,1,stimuli/blank.png,Agony,l,,,,,,,,
,,,,,,,,,,,,,mati,2,001,female,2023-08-11_18h36.08.583,openIAT,2020.1.0rc3,MacIntel,60,l,1,0.8813,,,,,,,,0.8813,1,0,16,16,13,1,stimuli/blank.png,Hurt,l,,,,,,,,
,,,,,,,,,,,,,mati,2,001,female,2023-08-11_18h36.08.583,openIAT,2020.1.0rc3,MacIntel,60,l,1,0.7945,,,,,,,,0.7945,1,0,17,17,1,1,stimuli/white_1.jpg,,l,,,,,,,,
,,,,,,,,,,,,,mati,2,001,female,2023-08-11_18h36.08.583,openIAT,2020.1.0rc3,MacIntel,60,a,1,0.7373,,,,,,,,0.7373,1,0,18,18,4,1,stimuli/black_3.jpg,,a,,,,,,,,
,,,,,,,,,,,,,mati,2,001,female,2023-08-11_18h36.08.583,openIAT,2020.1.0rc3,MacIntel,60,a,1,0.6035,,,,,,,,0.6035,1,0,19,19,0,1,stimuli/black_1.jpg,,a,,,,,,,,
,,,,,,,,,,,,,mati,2,001,female,2023-08-11_18h36.08.583,openIAT,2020.1.0rc3,MacIntel,60,,,,,,,,,,,,,,,,,,,,,0,2,2,2,1,incong_test.xlsx,"A = 
Black or 
Positive","L = 
White or 
Negative"
,,,,,,,,,,,,,mati,2,001,female,2023-08-11_18h36.08.583,openIAT,2020.1.0rc3,MacIntel,60,l,0,0.9448,,,,,,,,0.9448,0,0,0,0,3,1,stimuli/white_2.jpg,NaN,a,,,,,,,,
,,,,,,,,,,,,,mati,2,001,female,2023-08-11_18h36.08.583,openIAT,2020.1.0rc3,MacIntel,60,l,1,1.5421,,,,,,,,1.5421,1,0,1,1,2,1,stimuli/black_2.jpg,NaN,l,,,,,,,,
,,,,,,,,,,,,,mati,2,001,female,2023-08-11_18h36.08.583,openIAT,2020.1.0rc3,MacIntel,60,a,0,1.0318,,,,,,,,1.0318,0,0,2,2,8,1,stimuli/black_5.jpg,NaN,l,,,,,,,,
,,,,,,,,,,,,,mati,2,001,female,2023-08-11_18h36.08.583,openIAT,2020.1.0rc3,MacIntel,60,l,1,1.2303,,,,,,,,1.2303,1,0,3,3,6,1,stimuli/black_4.jpg,NaN,l,,,,,,,,
,,,,,,,,,,,,,mati,2,001,female,2023-08-11_18h36.08.583,openIAT,2020.1.0rc3,MacIntel,60,a,1,1.008,,,,,,,,1.008,1,0,4,4,7,1,stimuli/white_4.jpg,NaN,a,,,,,,,,
,,,,,,,,,,,,,mati,2,001,female,2023-08-11_18h36.08.583,openIAT,2020.1.0rc3,MacIntel,60,l,1,0.9083,,,,,,,,0.9083,1,0,5,5,4,1,stimuli/black_3.jpg,NaN,l,,,,,,,,
,,,,,,,,,,,,,mati,2,001,female,2023-08-11_18h36.08.583,openIAT,2020.1.0rc3,MacIntel,60,a,1,1.1605,,,,,,,,1.1605,1,0,6,6,9,1,stimuli/white_5.jpg,NaN,a,,,,,,,,
,,,,,,,,,,,,,mati,2,001,female,2023-08-11_18h36.08.583,openIAT,2020.1.0rc3,MacIntel,60,a,1,0.7976,,,,,,,,0.7976,1,0,7,7,5,1,stimuli/white_3.jpg,NaN,a,,,,,,,,
,,,,,,,,,,,,,mati,2,001,female,2023-08-11_18h36.08.583,openIAT,2020.1.0rc3,MacIntel,60,a,1,0.5287,,,,,,,,0.5287,1,0,8,8,1,1,stimuli/white_1.jpg,NaN,a,,,,,,,,
,,,,,,,,,,,,,mati,2,001,female,2023-08-11_18h36.08.583,openIAT,2020.1.0rc3,MacIntel,60,l,1,0.6256,,,,,,,,0.6256,1,0,9,9,0,1,stimuli/black_1.jpg,NaN,l,,,,,,,,
,,,,,,,,,,,,,mati,2,001,female,2023-08-11_18h36.08.583,openIAT,2020.1.0rc3,MacIntel,60,,,,,,,,,,,,,,,,,,,,,0,3,3,3,1,cong_train.xlsx,"A = 
White","L = 
Black"
,,,,,,,,,,,,,mati,2,001,female,2023-08-11_18h36.08.583,openIAT,2020.1.0rc3,MacIntel,60,l,1,0.8131,,,,,,,,0.8131,1,0,0,0,0,1,stimuli/black_1.jpg,NaN,l,,,,,,,,
,,,,,,,,,,,,,mati,2,001,female,2023-08-11_18h36.08.583,openIAT,2020.1.0rc3,MacIntel,60,l,1,0.5938,,,,,,,,0.5938,1,0,1,1,19,1,stimuli/blank.png,Nasty,l,,,,,,,,
,,,,,,,,,,,,,mati,2,001,female,2023-08-11_18h36.08.583,openIAT,2020.1.0rc3,MacIntel,60,l,1,0.5929,,,,,,,,0.5929,1,0,2,2,4,1,stimuli/black_3.jpg,NaN,l,,,,,,,,
,,,,,,,,,,,,,mati,2,001,female,2023-08-11_18h36.08.583,openIAT,2020.1.0rc3,MacIntel,60,l,0,0.6274,,,,,,,,0.6274,0,0,3,3,1,1,stimuli/white_1.jpg,NaN,a,,,,,,,,
,,,,,,,,,,,,,mati,2,001,female,2023-08-11_18h36.08.583,openIAT,2020.1.0rc3,MacIntel,60,l,1,0.742,,,,,,,,0.742,1,0,4,4,8,1,stimuli/black_5.jpg,NaN,l,,,,,,,,
,,,,,,,,,,,,,mati,2,001,female,2023-08-11_18h36.08.583,openIAT,2020.1.0rc3,MacIntel,60,l,1,0.7914,,,,,,,,0.7914,1,0,5,5,17,1,stimuli/blank.png,Evil,l,,,,,,,,
,,,,,,,,,,,,,mati,2,001,female,2023-08-11_18h36.08.583,openIAT,2020.1.0rc3,MacIntel,60,a,1,1.0602,,,,,,,,1.0602,1,0,6,6,7,1,stimuli/white_4.jpg,NaN,a,,,,,,,,
,,,,,,,,,,,,,mati,2,001,female,2023-08-11_18h36.08.583,openIAT,2020.1.0rc3,MacIntel,60,l,1,0.963,,,,,,,,0.963,1,0,7,7,6,1,stimuli/black_4.jpg,NaN,l,,,,,,,,
,,,,,,,,,,,,,mati,2,001,female,2023-08-11_18h36.08.583,openIAT,2020.1.0rc3,MacIntel,60,a,1,0.8178,,,,,,,,0.8178,1,0,8,8,16,1,stimuli/blank.png,Love,a,,,,,,,,
,,,,,,,,,,,,,mati,2,001,female,2023-08-11_18h36.08.583,openIAT,2020.1.0rc3,MacIntel,60,l,1,0.8464,,,,,,,,0.8464,1,0,9,9,2,1,stimuli/black_2.jpg,NaN,l,,,,,,,,
,,,,,,,,,,,,,mati,2,001,female,2023-08-11_18h36.08.583,openIAT,2020.1.0rc3,MacIntel,60,a,1,0.7609,,,,,,,,0.7609,1,0,10,10,10,1,stimuli/blank.png,Good,a,,,,,,,,
,,,,,,,,,,,,,mati,2,001,female,2023-08-11_18h36.08.583,openIAT,2020.1.0rc3,MacIntel,60,l,1,0.7071,,,,,,,,0.7071,1,0,11,11,15,1,stimuli/blank.png,Agony,l,,,,,,,,
,,,,,,,,,,,,,mati,2,001,female,2023-08-11_18h36.08.583,openIAT,2020.1.0rc3,MacIntel,60,a,1,0.8461,,,,,,,,0.8461,1,0,12,12,14,1,stimuli/blank.png,Pleasure,a,,,,,,,,
,,,,,,,,,,,,,mati,2,001,female,2023-08-11_18h36.08.583,openIAT,2020.1.0rc3,MacIntel,60,l,0,1.246,,,,,,,,1.246,0,0,13,13,3,1,stimuli/white_2.jpg,NaN,a,,,,,,,,
,,,,,,,,,,,,,mati,2,001,female,2023-08-11_18h36.08.583,openIAT,2020.1.0rc3,MacIntel,60,a,1,1.2281,,,,,,,,1.2281,1,0,14,14,5,1,stimuli/white_3.jpg,NaN,a,,,,,,,,
,,,,,,,,,,,,,mati,2,001,female,2023-08-11_18h36.08.583,openIAT,2020.1.0rc3,MacIntel,60,a,1,0.6936,,,,,,,,0.6936,1,0,15,15,12,1,stimuli/blank.png,Happy,a,,,,,,,,
,,,,,,,,,,,,,mati,2,001,female,2023-08-11_18h36.08.583,openIAT,2020.1.0rc3,MacIntel,60,l,1,1.213,,,,,,,,1.213,1,0,16,16,11,1,stimuli/blank.png,Bad,l,,,,,,,,
,,,,,,,,,,,,,mati,2,001,female,2023-08-11_18h36.08.583,openIAT,2020.1.0rc3,MacIntel,60,a,1,0.6917,,,,,,,,0.6917,1,0,17,17,9,1,stimuli/white_5.jpg,NaN,a,,,,,,,,
,,,,,,,,,,,,,mati,2,001,female,2023-08-11_18h36.08.583,openIAT,2020.1.0rc3,MacIntel,60,a,1,0.7118,,,,,,,,0.7118,1,0,18,18,18,1,stimuli/blank.png,Joy,a,,,,,,,,
,,,,,,,,,,,,,mati,2,001,female,2023-08-11_18h36.08.583,openIAT,2020.1.0rc3,MacIntel,60,l,1,0.9396,,,,,,,,0.9396,1,0,19,19,13,1,stimuli/blank.png,Hurt,l,,,,,,,,
