instr_done_touch.x,instr_done_touch.y,instr_done_touch.leftButton,instr_done_touch.midButton,instr_done_touch.rightButton,instr_done_touch.clicked_name,instruct_pages.thisRepN,instruct_pages.thisTrialN,instruct_pages.thisN,instruct_pages.thisIndex,instruct_pages.ran,pageN,instruct_text,participant,order,session,gender,date,expName,psychopyVersion,OS,frameRate,key_resp.keys,key_resp.corr,key_resp.rt,touch_resp.x,touch_resp.y,touch_resp.leftButton,touch_resp.midButton,touch_resp.rightButton,touch_resp.time,touch_resp.clicked_name,rt,corr,trials.thisRepN,trials.thisTrialN,trials.thisN,trials.thisIndex,trials.ran,stimImage,stimWord,CorrAns,blocks.thisRepN,blocks.thisTrialN,blocks.thisN,blocks.thisIndex,blocks.ran,conds_file,label_left,label_right
0.003286133,-0.399658203,1,0,0,instr_done_button,0,0,0,0,1,1,"You will be presented with words or images to classify into categories using either the 'A' or 'L' key. 
 
Try to go as fast as possible while making as few mistakes as possible. 
",maxime,2,001,male,2024-01-23_06h08.08.712,openIAT,2020.1.0rc3,MacIntel,60,,,,,,,,,,,,,,,,,,,,,,,,,,,,
0.001142578,-0.392026367,1,0,0,instr_done_button,0,1,1,1,1,2,"Keep in mind: 
 
1) Labels at the top of the screen indicate which catogory goes with which key. 
 
2) Each word or image has a correct catogory classification 
 
3) Keep your index fingers on the A and L keys to enable a rapid response. 
 
4) The test gives no results if you go slow- please try to go as fast as possible 
",maxime,2,001,male,2024-01-23_06h08.08.712,openIAT,2020.1.0rc3,MacIntel,60,,,,,,,,,,,,,,,,,,,,,,,,,,,,
,,,,,,,,,,,,,maxime,2,001,male,2024-01-23_06h08.08.712,openIAT,2020.1.0rc3,MacIntel,60,l,0,7.7269,,,,,,,,7.7269,0,0,0,0,0,1,stimuli/blank.png,Good,a,,,,,,,,
,,,,,,,,,,,,,maxime,2,001,male,2024-01-23_06h08.08.712,openIAT,2020.1.0rc3,MacIntel,60,l,1,1.1519,,,,,,,,1.1519,1,0,1,1,1,1,stimuli/blank.png,Bad,l,,,,,,,,
,,,,,,,,,,,,,maxime,2,001,male,2024-01-23_06h08.08.712,openIAT,2020.1.0rc3,MacIntel,60,a,1,7.3508,,,,,,,,7.3508,1,0,2,2,8,1,stimuli/blank.png,Joy,a,,,,,,,,
,,,,,,,,,,,,,maxime,2,001,male,2024-01-23_06h08.08.712,openIAT,2020.1.0rc3,MacIntel,60,l,1,1.2817,,,,,,,,1.2817,1,0,3,3,3,1,stimuli/blank.png,Hurt,l,,,,,,,,
,,,,,,,,,,,,,maxime,2,001,male,2024-01-23_06h08.08.712,openIAT,2020.1.0rc3,MacIntel,60,l,1,1.0476,,,,,,,,1.0476,1,0,4,4,7,1,stimuli/blank.png,Evil,l,,,,,,,,
,,,,,,,,,,,,,maxime,2,001,male,2024-01-23_06h08.08.712,openIAT,2020.1.0rc3,MacIntel,60,a,1,0.7464,,,,,,,,0.7464,1,0,5,5,2,1,stimuli/blank.png,Happy,a,,,,,,,,
,,,,,,,,,,,,,maxime,2,001,male,2024-01-23_06h08.08.712,openIAT,2020.1.0rc3,MacIntel,60,l,0,1.5657,,,,,,,,1.5657,0,0,6,6,6,1,stimuli/blank.png,Love,a,,,,,,,,
,,,,,,,,,,,,,maxime,2,001,male,2024-01-23_06h08.08.712,openIAT,2020.1.0rc3,MacIntel,60,a,1,1.0291,,,,,,,,1.0291,1,0,7,7,4,1,stimuli/blank.png,Pleasure,a,,,,,,,,
,,,,,,,,,,,,,maxime,2,001,male,2024-01-23_06h08.08.712,openIAT,2020.1.0rc3,MacIntel,60,l,1,1.178,,,,,,,,1.178,1,0,8,8,5,1,stimuli/blank.png,Agony,l,,,,,,,,
,,,,,,,,,,,,,maxime,2,001,male,2024-01-23_06h08.08.712,openIAT,2020.1.0rc3,MacIntel,60,l,1,3.0186,,,,,,,,3.0186,1,0,9,9,9,1,stimuli/blank.png,Nasty,l,,,,,,,,
,,,,,,,,,,,,,maxime,2,001,male,2024-01-23_06h08.08.712,openIAT,2020.1.0rc3,MacIntel,60,,,,,,,,,,,,,,,,,,,,,0,0,0,0,1,pos_neg_train.xlsx,"A = 
Positive","L = 
Negative"
,,,,,,,,,,,,,maxime,2,001,male,2024-01-23_06h08.08.712,openIAT,2020.1.0rc3,MacIntel,60,l,1,6.6003,,,,,,,,6.6003,1,0,0,0,3,1,stimuli/white_2.jpg,,l,,,,,,,,
,,,,,,,,,,,,,maxime,2,001,male,2024-01-23_06h08.08.712,openIAT,2020.1.0rc3,MacIntel,60,a,1,3.6018,,,,,,,,3.6018,1,0,1,1,4,1,stimuli/black_3.jpg,,a,,,,,,,,
,,,,,,,,,,,,,maxime,2,001,male,2024-01-23_06h08.08.712,openIAT,2020.1.0rc3,MacIntel,60,a,1,1.1205,,,,,,,,1.1205,1,0,2,2,6,1,stimuli/black_4.jpg,,a,,,,,,,,
,,,,,,,,,,,,,maxime,2,001,male,2024-01-23_06h08.08.712,openIAT,2020.1.0rc3,MacIntel,60,l,1,0.7803,,,,,,,,0.7803,1,0,3,3,7,1,stimuli/white_4.jpg,,l,,,,,,,,
,,,,,,,,,,,,,maxime,2,001,male,2024-01-23_06h08.08.712,openIAT,2020.1.0rc3,MacIntel,60,l,1,1.0658,,,,,,,,1.0658,1,0,4,4,1,1,stimuli/white_1.jpg,,l,,,,,,,,
,,,,,,,,,,,,,maxime,2,001,male,2024-01-23_06h08.08.712,openIAT,2020.1.0rc3,MacIntel,60,l,1,0.6985,,,,,,,,0.6985,1,0,5,5,5,1,stimuli/white_3.jpg,,l,,,,,,,,
,,,,,,,,,,,,,maxime,2,001,male,2024-01-23_06h08.08.712,openIAT,2020.1.0rc3,MacIntel,60,a,1,0.9488,,,,,,,,0.9488,1,0,6,6,8,1,stimuli/black_5.jpg,,a,,,,,,,,
,,,,,,,,,,,,,maxime,2,001,male,2024-01-23_06h08.08.712,openIAT,2020.1.0rc3,MacIntel,60,l,0,0.6092,,,,,,,,0.6092,0,0,7,7,2,1,stimuli/black_2.jpg,,a,,,,,,,,
,,,,,,,,,,,,,maxime,2,001,male,2024-01-23_06h08.08.712,openIAT,2020.1.0rc3,MacIntel,60,l,0,0.7481,,,,,,,,0.7481,0,0,8,8,0,1,stimuli/black_1.jpg,,a,,,,,,,,
,,,,,,,,,,,,,maxime,2,001,male,2024-01-23_06h08.08.712,openIAT,2020.1.0rc3,MacIntel,60,l,1,0.7779,,,,,,,,0.7779,1,0,9,9,9,1,stimuli/white_5.jpg,,l,,,,,,,,
,,,,,,,,,,,,,maxime,2,001,male,2024-01-23_06h08.08.712,openIAT,2020.1.0rc3,MacIntel,60,,,,,,,,,,,,,,,,,,,,,0,1,1,1,1,incong_train.xlsx,"A = 
Black","L = 
White"
,,,,,,,,,,,,,maxime,2,001,male,2024-01-23_06h08.08.712,openIAT,2020.1.0rc3,MacIntel,60,a,0,3.0839,,,,,,,,3.0839,0,0,0,0,9,1,stimuli/white_5.jpg,,l,,,,,,,,
