instr_done_touch.x,instr_done_touch.y,instr_done_touch.leftButton,instr_done_touch.midButton,instr_done_touch.rightButton,instr_done_touch.clicked_name,instruct_pages.thisRepN,instruct_pages.thisTrialN,instruct_pages.thisN,instruct_pages.thisIndex,instruct_pages.ran,pageN,instruct_text,participant,order,session,gender,date,expName,psychopyVersion,OS,frameRate,key_resp.keys,key_resp.corr,key_resp.rt,touch_resp.x,touch_resp.y,touch_resp.leftButton,touch_resp.midButton,touch_resp.rightButton,touch_resp.time,touch_resp.clicked_name,rt,corr,trials.thisRepN,trials.thisTrialN,trials.thisN,trials.thisIndex,trials.ran,stimImage,stimWord,CorrAns,blocks.thisRepN,blocks.thisTrialN,blocks.thisN,blocks.thisIndex,blocks.ran,conds_file,label_left,label_right
0.094726563,-0.391601563,1,0,0,instr_done_button,0,0,0,0,1,1,"You will be presented with words or images to classify into categories using either the 'A' or 'L' key. 
 
Try to go as fast as possible while making as few mistakes as possible. 
",Me,1,001,female,2021-02-16_10h17.00.545,openIAT,2020.1.0rc3,Win32,60,,,,,,,,,,,,,,,,,,,,,,,,,,,,
0.081054688,-0.416015625,1,0,0,instr_done_button,0,1,1,1,1,2,"Keep in mind: 
 
1) Labels at the top of the screen indicate which catogory goes with which key. 
 
2) Each word or image has a correct catogory classification 
 
3) Keep your index fingers on the A and L keys to enable a rapid response. 
 
4) The test gives no results if you go slow- please try to go as fast as possible 
",Me,1,001,female,2021-02-16_10h17.00.545,openIAT,2020.1.0rc3,Win32,60,,,,,,,,,,,,,,,,,,,,,,,,,,,,
,,,,,,,,,,,,,Me,1,001,female,2021-02-16_10h17.00.545,openIAT,2020.1.0rc3,Win32,60,l,1,1.215,,,,,,,,1.215,1,0,0,0,7,1,stimuli/blank.png,Evil,l,,,,,,,,
,,,,,,,,,,,,,Me,1,001,female,2021-02-16_10h17.00.545,openIAT,2020.1.0rc3,Win32,60,l,1,1.157,,,,,,,,1.157,1,0,1,1,5,1,stimuli/blank.png,Agony,l,,,,,,,,
,,,,,,,,,,,,,Me,1,001,female,2021-02-16_10h17.00.545,openIAT,2020.1.0rc3,Win32,60,l,1,0.787,,,,,,,,0.787,1,0,2,2,1,1,stimuli/blank.png,Bad,l,,,,,,,,
,,,,,,,,,,,,,Me,1,001,female,2021-02-16_10h17.00.545,openIAT,2020.1.0rc3,Win32,60,a,1,0.647,,,,,,,,0.647,1,0,3,3,0,1,stimuli/blank.png,Good,a,,,,,,,,
,,,,,,,,,,,,,Me,1,001,female,2021-02-16_10h17.00.545,openIAT,2020.1.0rc3,Win32,60,a,1,0.629,,,,,,,,0.629,1,0,4,4,4,1,stimuli/blank.png,Pleasure,a,,,,,,,,
,,,,,,,,,,,,,Me,1,001,female,2021-02-16_10h17.00.545,openIAT,2020.1.0rc3,Win32,60,l,1,0.7,,,,,,,,0.7,1,0,5,5,3,1,stimuli/blank.png,Hurt,l,,,,,,,,
,,,,,,,,,,,,,Me,1,001,female,2021-02-16_10h17.00.545,openIAT,2020.1.0rc3,Win32,60,a,1,1.385,,,,,,,,1.385,1,0,6,6,2,1,stimuli/blank.png,Happy,a,,,,,,,,
,,,,,,,,,,,,,Me,1,001,female,2021-02-16_10h17.00.545,openIAT,2020.1.0rc3,Win32,60,a,1,0.654,,,,,,,,0.654,1,0,7,7,8,1,stimuli/blank.png,Joy,a,,,,,,,,
,,,,,,,,,,,,,Me,1,001,female,2021-02-16_10h17.00.545,openIAT,2020.1.0rc3,Win32,60,l,1,0.637,,,,,,,,0.637,1,0,8,8,9,1,stimuli/blank.png,Nasty,l,,,,,,,,
,,,,,,,,,,,,,Me,1,001,female,2021-02-16_10h17.00.545,openIAT,2020.1.0rc3,Win32,60,a,1,0.515,,,,,,,,0.515,1,0,9,9,6,1,stimuli/blank.png,Love,a,,,,,,,,
,,,,,,,,,,,,,Me,1,001,female,2021-02-16_10h17.00.545,openIAT,2020.1.0rc3,Win32,60,,,,,,,,,,,,,,,,,,,,,0,0,0,0,1,pos_neg_train.xlsx,"A = 
Positive","L = 
Negative"
,,,,,,,,,,,,,Me,1,001,female,2021-02-16_10h17.00.545,openIAT,2020.1.0rc3,Win32,60,l,1,0.765,,,,,,,,0.765,1,0,0,0,4,1,stimuli/black_3.jpg,NaN,l,,,,,,,,
,,,,,,,,,,,,,Me,1,001,female,2021-02-16_10h17.00.545,openIAT,2020.1.0rc3,Win32,60,l,0,0.574,,,,,,,,0.574,0,0,1,1,1,1,stimuli/white_1.jpg,NaN,a,,,,,,,,
,,,,,,,,,,,,,Me,1,001,female,2021-02-16_10h17.00.545,openIAT,2020.1.0rc3,Win32,60,a,1,0.431,,,,,,,,0.431,1,0,2,2,9,1,stimuli/white_5.jpg,NaN,a,,,,,,,,
,,,,,,,,,,,,,Me,1,001,female,2021-02-16_10h17.00.545,openIAT,2020.1.0rc3,Win32,60,l,1,0.849,,,,,,,,0.849,1,0,3,3,8,1,stimuli/black_5.jpg,NaN,l,,,,,,,,
,,,,,,,,,,,,,Me,1,001,female,2021-02-16_10h17.00.545,openIAT,2020.1.0rc3,Win32,60,l,1,0.648,,,,,,,,0.648,1,0,4,4,0,1,stimuli/black_1.jpg,NaN,l,,,,,,,,
,,,,,,,,,,,,,Me,1,001,female,2021-02-16_10h17.00.545,openIAT,2020.1.0rc3,Win32,60,l,1,0.628,,,,,,,,0.628,1,0,5,5,2,1,stimuli/black_2.jpg,NaN,l,,,,,,,,
,,,,,,,,,,,,,Me,1,001,female,2021-02-16_10h17.00.545,openIAT,2020.1.0rc3,Win32,60,l,0,0.477,,,,,,,,0.477,0,0,6,6,3,1,stimuli/white_2.jpg,NaN,a,,,,,,,,
,,,,,,,,,,,,,Me,1,001,female,2021-02-16_10h17.00.545,openIAT,2020.1.0rc3,Win32,60,a,1,0.336,,,,,,,,0.336,1,0,7,7,7,1,stimuli/white_4.jpg,NaN,a,,,,,,,,
,,,,,,,,,,,,,Me,1,001,female,2021-02-16_10h17.00.545,openIAT,2020.1.0rc3,Win32,60,a,1,0.648,,,,,,,,0.648,1,0,8,8,5,1,stimuli/white_3.jpg,NaN,a,,,,,,,,
,,,,,,,,,,,,,Me,1,001,female,2021-02-16_10h17.00.545,openIAT,2020.1.0rc3,Win32,60,l,1,0.628,,,,,,,,0.628,1,0,9,9,6,1,stimuli/black_4.jpg,NaN,l,,,,,,,,
,,,,,,,,,,,,,Me,1,001,female,2021-02-16_10h17.00.545,openIAT,2020.1.0rc3,Win32,60,,,,,,,,,,,,,,,,,,,,,0,1,1,1,1,cong_train.xlsx,"A = 
White","L = 
Black"
,,,,,,,,,,,,,Me,1,001,female,2021-02-16_10h17.00.545,openIAT,2020.1.0rc3,Win32,60,a,1,0.746,,,,,,,,0.746,1,0,0,0,18,1,stimuli/blank.png,Joy,a,,,,,,,,
,,,,,,,,,,,,,Me,1,001,female,2021-02-16_10h17.00.545,openIAT,2020.1.0rc3,Win32,60,a,1,0.619,,,,,,,,0.619,1,0,1,1,16,1,stimuli/blank.png,Love,a,,,,,,,,
,,,,,,,,,,,,,Me,1,001,female,2021-02-16_10h17.00.545,openIAT,2020.1.0rc3,Win32,60,l,1,0.639,,,,,,,,0.639,1,0,2,2,11,1,stimuli/blank.png,Bad,l,,,,,,,,
,,,,,,,,,,,,,Me,1,001,female,2021-02-16_10h17.00.545,openIAT,2020.1.0rc3,Win32,60,a,1,0.766,,,,,,,,0.766,1,0,3,3,1,1,stimuli/white_1.jpg,NaN,a,,,,,,,,
,,,,,,,,,,,,,Me,1,001,female,2021-02-16_10h17.00.545,openIAT,2020.1.0rc3,Win32,60,a,0,0.945,,,,,,,,0.945,0,0,4,4,15,1,stimuli/blank.png,Agony,l,,,,,,,,
,,,,,,,,,,,,,Me,1,001,female,2021-02-16_10h17.00.545,openIAT,2020.1.0rc3,Win32,60,l,1,0.335,,,,,,,,0.335,1,0,5,5,6,1,stimuli/black_4.jpg,NaN,l,,,,,,,,
,,,,,,,,,,,,,Me,1,001,female,2021-02-16_10h17.00.545,openIAT,2020.1.0rc3,Win32,60,l,1,0.971,,,,,,,,0.971,1,0,6,6,13,1,stimuli/blank.png,Hurt,l,,,,,,,,
,,,,,,,,,,,,,Me,1,001,female,2021-02-16_10h17.00.545,openIAT,2020.1.0rc3,Win32,60,a,1,0.627,,,,,,,,0.627,1,0,7,7,10,1,stimuli/blank.png,Good,a,,,,,,,,
,,,,,,,,,,,,,Me,1,001,female,2021-02-16_10h17.00.545,openIAT,2020.1.0rc3,Win32,60,l,1,0.76,,,,,,,,0.76,1,0,8,8,8,1,stimuli/black_5.jpg,NaN,l,,,,,,,,
,,,,,,,,,,,,,Me,1,001,female,2021-02-16_10h17.00.545,openIAT,2020.1.0rc3,Win32,60,l,1,0.757,,,,,,,,0.757,1,0,9,9,17,1,stimuli/blank.png,Evil,l,,,,,,,,
,,,,,,,,,,,,,Me,1,001,female,2021-02-16_10h17.00.545,openIAT,2020.1.0rc3,Win32,60,l,1,0.627,,,,,,,,0.627,1,0,10,10,2,1,stimuli/black_2.jpg,NaN,l,,,,,,,,
,,,,,,,,,,,,,Me,1,001,female,2021-02-16_10h17.00.545,openIAT,2020.1.0rc3,Win32,60,a,1,0.674,,,,,,,,0.674,1,0,11,11,14,1,stimuli/blank.png,Pleasure,a,,,,,,,,
,,,,,,,,,,,,,Me,1,001,female,2021-02-16_10h17.00.545,openIAT,2020.1.0rc3,Win32,60,a,1,0.74,,,,,,,,0.74,1,0,12,12,9,1,stimuli/white_5.jpg,NaN,a,,,,,,,,
,,,,,,,,,,,,,Me,1,001,female,2021-02-16_10h17.00.545,openIAT,2020.1.0rc3,Win32,60,l,1,0.641,,,,,,,,0.641,1,0,13,13,0,1,stimuli/black_1.jpg,NaN,l,,,,,,,,
,,,,,,,,,,,,,Me,1,001,female,2021-02-16_10h17.00.545,openIAT,2020.1.0rc3,Win32,60,l,1,0.796,,,,,,,,0.796,1,0,14,14,19,1,stimuli/blank.png,Nasty,l,,,,,,,,
,,,,,,,,,,,,,Me,1,001,female,2021-02-16_10h17.00.545,openIAT,2020.1.0rc3,Win32,60,a,1,0.619,,,,,,,,0.619,1,0,15,15,12,1,stimuli/blank.png,Happy,a,,,,,,,,
,,,,,,,,,,,,,Me,1,001,female,2021-02-16_10h17.00.545,openIAT,2020.1.0rc3,Win32,60,a,1,0.913,,,,,,,,0.913,1,0,16,16,5,1,stimuli/white_3.jpg,NaN,a,,,,,,,,
,,,,,,,,,,,,,Me,1,001,female,2021-02-16_10h17.00.545,openIAT,2020.1.0rc3,Win32,60,a,1,0.783,,,,,,,,0.783,1,0,17,17,3,1,stimuli/white_2.jpg,NaN,a,,,,,,,,
,,,,,,,,,,,,,Me,1,001,female,2021-02-16_10h17.00.545,openIAT,2020.1.0rc3,Win32,60,a,1,0.697,,,,,,,,0.697,1,0,18,18,7,1,stimuli/white_4.jpg,NaN,a,,,,,,,,
,,,,,,,,,,,,,Me,1,001,female,2021-02-16_10h17.00.545,openIAT,2020.1.0rc3,Win32,60,l,1,0.734,,,,,,,,0.734,1,0,19,19,4,1,stimuli/black_3.jpg,NaN,l,,,,,,,,
,,,,,,,,,,,,,Me,1,001,female,2021-02-16_10h17.00.545,openIAT,2020.1.0rc3,Win32,60,,,,,,,,,,,,,,,,,,,,,0,2,2,2,1,cong_test.xlsx,"A = 
White or 
Positive","L = 
Black or 
Negative"
,,,,,,,,,,,,,Me,1,001,female,2021-02-16_10h17.00.545,openIAT,2020.1.0rc3,Win32,60,l,1,0.893,,,,,,,,0.893,1,0,0,0,1,1,stimuli/white_1.jpg,,l,,,,,,,,
,,,,,,,,,,,,,Me,1,001,female,2021-02-16_10h17.00.545,openIAT,2020.1.0rc3,Win32,60,l,1,0.617,,,,,,,,0.617,1,0,1,1,3,1,stimuli/white_2.jpg,,l,,,,,,,,
,,,,,,,,,,,,,Me,1,001,female,2021-02-16_10h17.00.545,openIAT,2020.1.0rc3,Win32,60,a,1,0.751,,,,,,,,0.751,1,0,2,2,8,1,stimuli/black_5.jpg,,a,,,,,,,,
,,,,,,,,,,,,,Me,1,001,female,2021-02-16_10h17.00.545,openIAT,2020.1.0rc3,Win32,60,a,1,0.653,,,,,,,,0.653,1,0,3,3,4,1,stimuli/black_3.jpg,,a,,,,,,,,
,,,,,,,,,,,,,Me,1,001,female,2021-02-16_10h17.00.545,openIAT,2020.1.0rc3,Win32,60,l,1,0.61,,,,,,,,0.61,1,0,4,4,7,1,stimuli/white_4.jpg,,l,,,,,,,,
,,,,,,,,,,,,,Me,1,001,female,2021-02-16_10h17.00.545,openIAT,2020.1.0rc3,Win32,60,l,1,0.594,,,,,,,,0.594,1,0,5,5,9,1,stimuli/white_5.jpg,,l,,,,,,,,
,,,,,,,,,,,,,Me,1,001,female,2021-02-16_10h17.00.545,openIAT,2020.1.0rc3,Win32,60,a,1,0.569,,,,,,,,0.569,1,0,6,6,2,1,stimuli/black_2.jpg,,a,,,,,,,,
,,,,,,,,,,,,,Me,1,001,female,2021-02-16_10h17.00.545,openIAT,2020.1.0rc3,Win32,60,a,0,0.796,,,,,,,,0.796,0,0,7,7,5,1,stimuli/white_3.jpg,,l,,,,,,,,
,,,,,,,,,,,,,Me,1,001,female,2021-02-16_10h17.00.545,openIAT,2020.1.0rc3,Win32,60,l,0,0.419,,,,,,,,0.419,0,0,8,8,0,1,stimuli/black_1.jpg,,a,,,,,,,,
,,,,,,,,,,,,,Me,1,001,female,2021-02-16_10h17.00.545,openIAT,2020.1.0rc3,Win32,60,a,1,0.756,,,,,,,,0.756,1,0,9,9,6,1,stimuli/black_4.jpg,,a,,,,,,,,
,,,,,,,,,,,,,Me,1,001,female,2021-02-16_10h17.00.545,openIAT,2020.1.0rc3,Win32,60,,,,,,,,,,,,,,,,,,,,,0,3,3,3,1,incong_train.xlsx,"A = 
Black","L = 
White"
,,,,,,,,,,,,,Me,1,001,female,2021-02-16_10h17.00.545,openIAT,2020.1.0rc3,Win32,60,l,1,1.56,,,,,,,,1.56,1,0,0,0,1,1,stimuli/white_1.jpg,,l,,,,,,,,
,,,,,,,,,,,,,Me,1,001,female,2021-02-16_10h17.00.545,openIAT,2020.1.0rc3,Win32,60,a,1,0.74,,,,,,,,0.74,1,0,1,1,8,1,stimuli/black_5.jpg,,a,,,,,,,,
,,,,,,,,,,,,,Me,1,001,female,2021-02-16_10h17.00.545,openIAT,2020.1.0rc3,Win32,60,a,1,0.767,,,,,,,,0.767,1,0,2,2,2,1,stimuli/black_2.jpg,,a,,,,,,,,
,,,,,,,,,,,,,Me,1,001,female,2021-02-16_10h17.00.545,openIAT,2020.1.0rc3,Win32,60,l,1,0.88,,,,,,,,0.88,1,0,3,3,7,1,stimuli/white_4.jpg,,l,,,,,,,,
,,,,,,,,,,,,,Me,1,001,female,2021-02-16_10h17.00.545,openIAT,2020.1.0rc3,Win32,60,a,1,0.672,,,,,,,,0.672,1,0,4,4,6,1,stimuli/black_4.jpg,,a,,,,,,,,
,,,,,,,,,,,,,Me,1,001,female,2021-02-16_10h17.00.545,openIAT,2020.1.0rc3,Win32,60,l,0,0.77,,,,,,,,0.77,0,0,5,5,16,1,stimuli/blank.png,Love,a,,,,,,,,
,,,,,,,,,,,,,Me,1,001,female,2021-02-16_10h17.00.545,openIAT,2020.1.0rc3,Win32,60,a,0,0.595,,,,,,,,0.595,0,0,6,6,3,1,stimuli/white_2.jpg,,l,,,,,,,,
,,,,,,,,,,,,,Me,1,001,female,2021-02-16_10h17.00.545,openIAT,2020.1.0rc3,Win32,60,l,1,1.829,,,,,,,,1.829,1,0,7,7,15,1,stimuli/blank.png,Agony,l,,,,,,,,
,,,,,,,,,,,,,Me,1,001,female,2021-02-16_10h17.00.545,openIAT,2020.1.0rc3,Win32,60,l,1,0.999,,,,,,,,0.999,1,0,8,8,9,1,stimuli/white_5.jpg,,l,,,,,,,,
,,,,,,,,,,,,,Me,1,001,female,2021-02-16_10h17.00.545,openIAT,2020.1.0rc3,Win32,60,l,1,0.996,,,,,,,,0.996,1,0,9,9,19,1,stimuli/blank.png,Nasty,l,,,,,,,,
,,,,,,,,,,,,,Me,1,001,female,2021-02-16_10h17.00.545,openIAT,2020.1.0rc3,Win32,60,a,1,1.059,,,,,,,,1.059,1,0,10,10,12,1,stimuli/blank.png,Happy,a,,,,,,,,
,,,,,,,,,,,,,Me,1,001,female,2021-02-16_10h17.00.545,openIAT,2020.1.0rc3,Win32,60,a,1,0.75,,,,,,,,0.75,1,0,11,11,14,1,stimuli/blank.png,Pleasure,a,,,,,,,,
,,,,,,,,,,,,,Me,1,001,female,2021-02-16_10h17.00.545,openIAT,2020.1.0rc3,Win32,60,l,1,0.816,,,,,,,,0.816,1,0,12,12,11,1,stimuli/blank.png,Bad,l,,,,,,,,
,,,,,,,,,,,,,Me,1,001,female,2021-02-16_10h17.00.545,openIAT,2020.1.0rc3,Win32,60,l,0,0.718,,,,,,,,0.718,0,0,13,13,4,1,stimuli/black_3.jpg,,a,,,,,,,,
,,,,,,,,,,,,,Me,1,001,female,2021-02-16_10h17.00.545,openIAT,2020.1.0rc3,Win32,60,a,1,1.567,,,,,,,,1.567,1,0,14,14,18,1,stimuli/blank.png,Joy,a,,,,,,,,
,,,,,,,,,,,,,Me,1,001,female,2021-02-16_10h17.00.545,openIAT,2020.1.0rc3,Win32,60,a,0,1.696,,,,,,,,1.696,0,0,15,15,17,1,stimuli/blank.png,Evil,l,,,,,,,,
,,,,,,,,,,,,,Me,1,001,female,2021-02-16_10h17.00.545,openIAT,2020.1.0rc3,Win32,60,a,1,1.583,,,,,,,,1.583,1,0,16,16,10,1,stimuli/blank.png,Good,a,,,,,,,,
,,,,,,,,,,,,,Me,1,001,female,2021-02-16_10h17.00.545,openIAT,2020.1.0rc3,Win32,60,l,1,1.003,,,,,,,,1.003,1,0,17,17,5,1,stimuli/white_3.jpg,,l,,,,,,,,
,,,,,,,,,,,,,Me,1,001,female,2021-02-16_10h17.00.545,openIAT,2020.1.0rc3,Win32,60,l,1,1.157,,,,,,,,1.157,1,0,18,18,13,1,stimuli/blank.png,Hurt,l,,,,,,,,
,,,,,,,,,,,,,Me,1,001,female,2021-02-16_10h17.00.545,openIAT,2020.1.0rc3,Win32,60,a,1,0.91,,,,,,,,0.91,1,0,19,19,0,1,stimuli/black_1.jpg,,a,,,,,,,,
