instr_done_touch.x,instr_done_touch.y,instr_done_touch.leftButton,instr_done_touch.midButton,instr_done_touch.rightButton,instr_done_touch.clicked_name,instruct_pages.thisRepN,instruct_pages.thisTrialN,instruct_pages.thisN,instruct_pages.thisIndex,instruct_pages.ran,pageN,instruct_text,participant,order,session,gender,date,expName,psychopyVersion,OS,frameRate,key_resp.keys,key_resp.corr,key_resp.rt,touch_resp.x,touch_resp.y,touch_resp.leftButton,touch_resp.midButton,touch_resp.rightButton,touch_resp.time,touch_resp.clicked_name,rt,corr,trials.thisRepN,trials.thisTrialN,trials.thisN,trials.thisIndex,trials.ran,stimImage,stimWord,CorrAns,blocks.thisRepN,blocks.thisTrialN,blocks.thisN,blocks.thisIndex,blocks.ran,conds_file,label_left,label_right
-0.008333333,-0.40462963,1,0,0,instr_done_button,0,0,0,0,1,1,"You will be presented with words or images to classify into categories using either the 'A' or 'L' key. 
 
Try to go as fast as possible while making as few mistakes as possible. 
",me,2,001,male,2021-01-28_15h22.59.193,openIAT,2020.1.0rc3,Win32,60,,,,,,,,,,,,,,,,,,,,,,,,,,,,
-0.00462963,-0.405555556,1,0,0,instr_done_button,0,1,1,1,1,2,"Keep in mind: 
 
1) Labels at the top of the screen indicate which catogory goes with which key. 
 
2) Each word or image has a correct catogory classification 
 
3) Keep your index fingers on the A and L keys to enable a rapid response. 
 
4) The test gives no results if you go slow- please try to go as fast as possible 
",me,2,001,male,2021-01-28_15h22.59.193,openIAT,2020.1.0rc3,Win32,60,,,,,,,,,,,,,,,,,,,,,,,,,,,,
,,,,,,,,,,,,,me,2,001,male,2021-01-28_15h22.59.193,openIAT,2020.1.0rc3,Win32,60,l,1,3.073,,,,,,,,3.073,1,0,0,0,5,1,stimuli/blank.png,Agony,l,,,,,,,,
,,,,,,,,,,,,,me,2,001,male,2021-01-28_15h22.59.193,openIAT,2020.1.0rc3,Win32,60,a,0,0.263,,,,,,,,0.263,0,0,1,1,7,1,stimuli/blank.png,Evil,l,,,,,,,,
,,,,,,,,,,,,,me,2,001,male,2021-01-28_15h22.59.193,openIAT,2020.1.0rc3,Win32,60,a,1,1.1,,,,,,,,1.1,1,0,2,2,8,1,stimuli/blank.png,Joy,a,,,,,,,,
,,,,,,,,,,,,,me,2,001,male,2021-01-28_15h22.59.193,openIAT,2020.1.0rc3,Win32,60,a,1,0.985,,,,,,,,0.985,1,0,3,3,4,1,stimuli/blank.png,Pleasure,a,,,,,,,,
,,,,,,,,,,,,,me,2,001,male,2021-01-28_15h22.59.193,openIAT,2020.1.0rc3,Win32,60,l,1,0.842,,,,,,,,0.842,1,0,4,4,3,1,stimuli/blank.png,Hurt,l,,,,,,,,
,,,,,,,,,,,,,me,2,001,male,2021-01-28_15h22.59.193,openIAT,2020.1.0rc3,Win32,60,l,1,0.818,,,,,,,,0.818,1,0,5,5,9,1,stimuli/blank.png,Nasty,l,,,,,,,,
,,,,,,,,,,,,,me,2,001,male,2021-01-28_15h22.59.193,openIAT,2020.1.0rc3,Win32,60,l,1,0.946,,,,,,,,0.946,1,0,6,6,1,1,stimuli/blank.png,Bad,l,,,,,,,,
,,,,,,,,,,,,,me,2,001,male,2021-01-28_15h22.59.193,openIAT,2020.1.0rc3,Win32,60,a,1,0.722,,,,,,,,0.722,1,0,7,7,6,1,stimuli/blank.png,Love,a,,,,,,,,
,,,,,,,,,,,,,me,2,001,male,2021-01-28_15h22.59.193,openIAT,2020.1.0rc3,Win32,60,a,1,0.673,,,,,,,,0.673,1,0,8,8,0,1,stimuli/blank.png,Good,a,,,,,,,,
,,,,,,,,,,,,,me,2,001,male,2021-01-28_15h22.59.193,openIAT,2020.1.0rc3,Win32,60,a,1,0.769,,,,,,,,0.769,1,0,9,9,2,1,stimuli/blank.png,Happy,a,,,,,,,,
,,,,,,,,,,,,,me,2,001,male,2021-01-28_15h22.59.193,openIAT,2020.1.0rc3,Win32,60,,,,,,,,,,,,,,,,,,,,,0,0,0,0,1,pos_neg_train.xlsx,"A = 
Positive","L = 
Negative"
,,,,,,,,,,,,,me,2,001,male,2021-01-28_15h22.59.193,openIAT,2020.1.0rc3,Win32,60,l,1,1.324,,,,,,,,1.324,1,0,0,0,9,1,stimuli/white_5.jpg,,l,,,,,,,,
,,,,,,,,,,,,,me,2,001,male,2021-01-28_15h22.59.193,openIAT,2020.1.0rc3,Win32,60,a,1,0.982,,,,,,,,0.982,1,0,1,1,2,1,stimuli/black_2.jpg,,a,,,,,,,,
,,,,,,,,,,,,,me,2,001,male,2021-01-28_15h22.59.193,openIAT,2020.1.0rc3,Win32,60,l,1,0.696,,,,,,,,0.696,1,0,2,2,5,1,stimuli/white_3.jpg,,l,,,,,,,,
,,,,,,,,,,,,,me,2,001,male,2021-01-28_15h22.59.193,openIAT,2020.1.0rc3,Win32,60,l,1,0.714,,,,,,,,0.714,1,0,3,3,7,1,stimuli/white_4.jpg,,l,,,,,,,,
,,,,,,,,,,,,,me,2,001,male,2021-01-28_15h22.59.193,openIAT,2020.1.0rc3,Win32,60,a,1,0.695,,,,,,,,0.695,1,0,4,4,8,1,stimuli/black_5.jpg,,a,,,,,,,,
,,,,,,,,,,,,,me,2,001,male,2021-01-28_15h22.59.193,openIAT,2020.1.0rc3,Win32,60,l,1,0.809,,,,,,,,0.809,1,0,5,5,3,1,stimuli/white_2.jpg,,l,,,,,,,,
,,,,,,,,,,,,,me,2,001,male,2021-01-28_15h22.59.193,openIAT,2020.1.0rc3,Win32,60,l,1,0.633,,,,,,,,0.633,1,0,6,6,1,1,stimuli/white_1.jpg,,l,,,,,,,,
,,,,,,,,,,,,,me,2,001,male,2021-01-28_15h22.59.193,openIAT,2020.1.0rc3,Win32,60,l,0,0.558,,,,,,,,0.558,0,0,7,7,6,1,stimuli/black_4.jpg,,a,,,,,,,,
,,,,,,,,,,,,,me,2,001,male,2021-01-28_15h22.59.193,openIAT,2020.1.0rc3,Win32,60,a,1,0.796,,,,,,,,0.796,1,0,8,8,4,1,stimuli/black_3.jpg,,a,,,,,,,,
,,,,,,,,,,,,,me,2,001,male,2021-01-28_15h22.59.193,openIAT,2020.1.0rc3,Win32,60,a,1,0.487,,,,,,,,0.487,1,0,9,9,0,1,stimuli/black_1.jpg,,a,,,,,,,,
,,,,,,,,,,,,,me,2,001,male,2021-01-28_15h22.59.193,openIAT,2020.1.0rc3,Win32,60,,,,,,,,,,,,,,,,,,,,,0,1,1,1,1,incong_train.xlsx,"A = 
Black","L = 
White"
,,,,,,,,,,,,,me,2,001,male,2021-01-28_15h22.59.193,openIAT,2020.1.0rc3,Win32,60,l,1,2.253,,,,,,,,2.253,1,0,0,0,19,1,stimuli/blank.png,Nasty,l,,,,,,,,
,,,,,,,,,,,,,me,2,001,male,2021-01-28_15h22.59.193,openIAT,2020.1.0rc3,Win32,60,a,1,1.057,,,,,,,,1.057,1,0,1,1,2,1,stimuli/black_2.jpg,,a,,,,,,,,
,,,,,,,,,,,,,me,2,001,male,2021-01-28_15h22.59.193,openIAT,2020.1.0rc3,Win32,60,a,1,0.851,,,,,,,,0.851,1,0,2,2,10,1,stimuli/blank.png,Good,a,,,,,,,,
,,,,,,,,,,,,,me,2,001,male,2021-01-28_15h22.59.193,openIAT,2020.1.0rc3,Win32,60,a,1,1.191,,,,,,,,1.191,1,0,3,3,16,1,stimuli/blank.png,Love,a,,,,,,,,
,,,,,,,,,,,,,me,2,001,male,2021-01-28_15h22.59.193,openIAT,2020.1.0rc3,Win32,60,l,1,0.87,,,,,,,,0.87,1,0,4,4,9,1,stimuli/white_5.jpg,,l,,,,,,,,
,,,,,,,,,,,,,me,2,001,male,2021-01-28_15h22.59.193,openIAT,2020.1.0rc3,Win32,60,l,1,1.039,,,,,,,,1.039,1,0,5,5,17,1,stimuli/blank.png,Evil,l,,,,,,,,
,,,,,,,,,,,,,me,2,001,male,2021-01-28_15h22.59.193,openIAT,2020.1.0rc3,Win32,60,a,1,0.928,,,,,,,,0.928,1,0,6,6,12,1,stimuli/blank.png,Happy,a,,,,,,,,
,,,,,,,,,,,,,me,2,001,male,2021-01-28_15h22.59.193,openIAT,2020.1.0rc3,Win32,60,a,1,0.866,,,,,,,,0.866,1,0,7,7,6,1,stimuli/black_4.jpg,,a,,,,,,,,
,,,,,,,,,,,,,me,2,001,male,2021-01-28_15h22.59.193,openIAT,2020.1.0rc3,Win32,60,l,1,0.606,,,,,,,,0.606,1,0,8,8,3,1,stimuli/white_2.jpg,,l,,,,,,,,
,,,,,,,,,,,,,me,2,001,male,2021-01-28_15h22.59.193,openIAT,2020.1.0rc3,Win32,60,a,1,0.821,,,,,,,,0.821,1,0,9,9,4,1,stimuli/black_3.jpg,,a,,,,,,,,
,,,,,,,,,,,,,me,2,001,male,2021-01-28_15h22.59.193,openIAT,2020.1.0rc3,Win32,60,l,1,0.842,,,,,,,,0.842,1,0,10,10,5,1,stimuli/white_3.jpg,,l,,,,,,,,
,,,,,,,,,,,,,me,2,001,male,2021-01-28_15h22.59.193,openIAT,2020.1.0rc3,Win32,60,a,1,0.859,,,,,,,,0.859,1,0,11,11,14,1,stimuli/blank.png,Pleasure,a,,,,,,,,
,,,,,,,,,,,,,me,2,001,male,2021-01-28_15h22.59.193,openIAT,2020.1.0rc3,Win32,60,l,1,0.846,,,,,,,,0.846,1,0,12,12,7,1,stimuli/white_4.jpg,,l,,,,,,,,
,,,,,,,,,,,,,me,2,001,male,2021-01-28_15h22.59.193,openIAT,2020.1.0rc3,Win32,60,l,1,0.922,,,,,,,,0.922,1,0,13,13,11,1,stimuli/blank.png,Bad,l,,,,,,,,
,,,,,,,,,,,,,me,2,001,male,2021-01-28_15h22.59.193,openIAT,2020.1.0rc3,Win32,60,a,1,1,,,,,,,,1,1,0,14,14,18,1,stimuli/blank.png,Joy,a,,,,,,,,
,,,,,,,,,,,,,me,2,001,male,2021-01-28_15h22.59.193,openIAT,2020.1.0rc3,Win32,60,l,1,0.714,,,,,,,,0.714,1,0,15,15,1,1,stimuli/white_1.jpg,,l,,,,,,,,
,,,,,,,,,,,,,me,2,001,male,2021-01-28_15h22.59.193,openIAT,2020.1.0rc3,Win32,60,a,1,0.868,,,,,,,,0.868,1,0,16,16,0,1,stimuli/black_1.jpg,,a,,,,,,,,
,,,,,,,,,,,,,me,2,001,male,2021-01-28_15h22.59.193,openIAT,2020.1.0rc3,Win32,60,l,1,1.027,,,,,,,,1.027,1,0,17,17,13,1,stimuli/blank.png,Hurt,l,,,,,,,,
,,,,,,,,,,,,,me,2,001,male,2021-01-28_15h22.59.193,openIAT,2020.1.0rc3,Win32,60,l,1,1.213,,,,,,,,1.213,1,0,18,18,15,1,stimuli/blank.png,Agony,l,,,,,,,,
,,,,,,,,,,,,,me,2,001,male,2021-01-28_15h22.59.193,openIAT,2020.1.0rc3,Win32,60,a,1,0.82,,,,,,,,0.82,1,0,19,19,8,1,stimuli/black_5.jpg,,a,,,,,,,,
,,,,,,,,,,,,,me,2,001,male,2021-01-28_15h22.59.193,openIAT,2020.1.0rc3,Win32,60,,,,,,,,,,,,,,,,,,,,,0,2,2,2,1,incong_test.xlsx,"A = 
Black or 
Positive","L = 
White or 
Negative"
,,,,,,,,,,,,,me,2,001,male,2021-01-28_15h22.59.193,openIAT,2020.1.0rc3,Win32,60,l,1,0.976,,,,,,,,0.976,1,0,0,0,6,1,stimuli/black_4.jpg,NaN,l,,,,,,,,
,,,,,,,,,,,,,me,2,001,male,2021-01-28_15h22.59.193,openIAT,2020.1.0rc3,Win32,60,a,1,0.813,,,,,,,,0.813,1,0,1,1,5,1,stimuli/white_3.jpg,NaN,a,,,,,,,,
,,,,,,,,,,,,,me,2,001,male,2021-01-28_15h22.59.193,openIAT,2020.1.0rc3,Win32,60,a,1,0.831,,,,,,,,0.831,1,0,2,2,3,1,stimuli/white_2.jpg,NaN,a,,,,,,,,
,,,,,,,,,,,,,me,2,001,male,2021-01-28_15h22.59.193,openIAT,2020.1.0rc3,Win32,60,a,1,0.686,,,,,,,,0.686,1,0,3,3,9,1,stimuli/white_5.jpg,NaN,a,,,,,,,,
,,,,,,,,,,,,,me,2,001,male,2021-01-28_15h22.59.193,openIAT,2020.1.0rc3,Win32,60,l,1,0.859,,,,,,,,0.859,1,0,4,4,2,1,stimuli/black_2.jpg,NaN,l,,,,,,,,
,,,,,,,,,,,,,me,2,001,male,2021-01-28_15h22.59.193,openIAT,2020.1.0rc3,Win32,60,l,1,0.649,,,,,,,,0.649,1,0,5,5,4,1,stimuli/black_3.jpg,NaN,l,,,,,,,,
,,,,,,,,,,,,,me,2,001,male,2021-01-28_15h22.59.193,openIAT,2020.1.0rc3,Win32,60,a,1,0.734,,,,,,,,0.734,1,0,6,6,1,1,stimuli/white_1.jpg,NaN,a,,,,,,,,
,,,,,,,,,,,,,me,2,001,male,2021-01-28_15h22.59.193,openIAT,2020.1.0rc3,Win32,60,l,1,1.048,,,,,,,,1.048,1,0,7,7,0,1,stimuli/black_1.jpg,NaN,l,,,,,,,,
,,,,,,,,,,,,,me,2,001,male,2021-01-28_15h22.59.193,openIAT,2020.1.0rc3,Win32,60,a,1,0.886,,,,,,,,0.886,1,0,8,8,7,1,stimuli/white_4.jpg,NaN,a,,,,,,,,
,,,,,,,,,,,,,me,2,001,male,2021-01-28_15h22.59.193,openIAT,2020.1.0rc3,Win32,60,l,1,0.902,,,,,,,,0.902,1,0,9,9,8,1,stimuli/black_5.jpg,NaN,l,,,,,,,,
,,,,,,,,,,,,,me,2,001,male,2021-01-28_15h22.59.193,openIAT,2020.1.0rc3,Win32,60,,,,,,,,,,,,,,,,,,,,,0,3,3,3,1,cong_train.xlsx,"A = 
White","L = 
Black"
,,,,,,,,,,,,,me,2,001,male,2021-01-28_15h22.59.193,openIAT,2020.1.0rc3,Win32,60,a,1,1.32,,,,,,,,1.32,1,0,0,0,7,1,stimuli/white_4.jpg,NaN,a,,,,,,,,
,,,,,,,,,,,,,me,2,001,male,2021-01-28_15h22.59.193,openIAT,2020.1.0rc3,Win32,60,a,1,1.281,,,,,,,,1.281,1,0,1,1,3,1,stimuli/white_2.jpg,NaN,a,,,,,,,,
,,,,,,,,,,,,,me,2,001,male,2021-01-28_15h22.59.193,openIAT,2020.1.0rc3,Win32,60,l,1,0.866,,,,,,,,0.866,1,0,2,2,13,1,stimuli/blank.png,Hurt,l,,,,,,,,
,,,,,,,,,,,,,me,2,001,male,2021-01-28_15h22.59.193,openIAT,2020.1.0rc3,Win32,60,l,1,0.958,,,,,,,,0.958,1,0,3,3,0,1,stimuli/black_1.jpg,NaN,l,,,,,,,,
,,,,,,,,,,,,,me,2,001,male,2021-01-28_15h22.59.193,openIAT,2020.1.0rc3,Win32,60,a,1,1.055,,,,,,,,1.055,1,0,4,4,16,1,stimuli/blank.png,Love,a,,,,,,,,
,,,,,,,,,,,,,me,2,001,male,2021-01-28_15h22.59.193,openIAT,2020.1.0rc3,Win32,60,l,1,0.926,,,,,,,,0.926,1,0,5,5,15,1,stimuli/blank.png,Agony,l,,,,,,,,
,,,,,,,,,,,,,me,2,001,male,2021-01-28_15h22.59.193,openIAT,2020.1.0rc3,Win32,60,a,1,0.759,,,,,,,,0.759,1,0,6,6,12,1,stimuli/blank.png,Happy,a,,,,,,,,
,,,,,,,,,,,,,me,2,001,male,2021-01-28_15h22.59.193,openIAT,2020.1.0rc3,Win32,60,l,1,0.849,,,,,,,,0.849,1,0,7,7,2,1,stimuli/black_2.jpg,NaN,l,,,,,,,,
,,,,,,,,,,,,,me,2,001,male,2021-01-28_15h22.59.193,openIAT,2020.1.0rc3,Win32,60,l,1,0.658,,,,,,,,0.658,1,0,8,8,4,1,stimuli/black_3.jpg,NaN,l,,,,,,,,
,,,,,,,,,,,,,me,2,001,male,2021-01-28_15h22.59.193,openIAT,2020.1.0rc3,Win32,60,l,1,0.613,,,,,,,,0.613,1,0,9,9,6,1,stimuli/black_4.jpg,NaN,l,,,,,,,,
,,,,,,,,,,,,,me,2,001,male,2021-01-28_15h22.59.193,openIAT,2020.1.0rc3,Win32,60,a,1,0.679,,,,,,,,0.679,1,0,10,10,9,1,stimuli/white_5.jpg,NaN,a,,,,,,,,
,,,,,,,,,,,,,me,2,001,male,2021-01-28_15h22.59.193,openIAT,2020.1.0rc3,Win32,60,a,1,0.744,,,,,,,,0.744,1,0,11,11,18,1,stimuli/blank.png,Joy,a,,,,,,,,
,,,,,,,,,,,,,me,2,001,male,2021-01-28_15h22.59.193,openIAT,2020.1.0rc3,Win32,60,a,1,0.896,,,,,,,,0.896,1,0,12,12,14,1,stimuli/blank.png,Pleasure,a,,,,,,,,
,,,,,,,,,,,,,me,2,001,male,2021-01-28_15h22.59.193,openIAT,2020.1.0rc3,Win32,60,l,1,0.793,,,,,,,,0.793,1,0,13,13,11,1,stimuli/blank.png,Bad,l,,,,,,,,
,,,,,,,,,,,,,me,2,001,male,2021-01-28_15h22.59.193,openIAT,2020.1.0rc3,Win32,60,a,1,0.616,,,,,,,,0.616,1,0,14,14,5,1,stimuli/white_3.jpg,NaN,a,,,,,,,,
,,,,,,,,,,,,,me,2,001,male,2021-01-28_15h22.59.193,openIAT,2020.1.0rc3,Win32,60,l,1,0.62,,,,,,,,0.62,1,0,15,15,8,1,stimuli/black_5.jpg,NaN,l,,,,,,,,
,,,,,,,,,,,,,me,2,001,male,2021-01-28_15h22.59.193,openIAT,2020.1.0rc3,Win32,60,l,1,1.085,,,,,,,,1.085,1,0,16,16,17,1,stimuli/blank.png,Evil,l,,,,,,,,
,,,,,,,,,,,,,me,2,001,male,2021-01-28_15h22.59.193,openIAT,2020.1.0rc3,Win32,60,a,1,0.791,,,,,,,,0.791,1,0,17,17,1,1,stimuli/white_1.jpg,NaN,a,,,,,,,,
,,,,,,,,,,,,,me,2,001,male,2021-01-28_15h22.59.193,openIAT,2020.1.0rc3,Win32,60,l,1,0.695,,,,,,,,0.695,1,0,18,18,19,1,stimuli/blank.png,Nasty,l,,,,,,,,
,,,,,,,,,,,,,me,2,001,male,2021-01-28_15h22.59.193,openIAT,2020.1.0rc3,Win32,60,a,1,0.831,,,,,,,,0.831,1,0,19,19,10,1,stimuli/blank.png,Good,a,,,,,,,,
