instr_done_touch.x,instr_done_touch.y,instr_done_touch.leftButton,instr_done_touch.midButton,instr_done_touch.rightButton,instr_done_touch.clicked_name,instruct_pages.thisRepN,instruct_pages.thisTrialN,instruct_pages.thisN,instruct_pages.thisIndex,instruct_pages.ran,pageN,instruct_text,participant,order,session,gender,date,expName,psychopyVersion,OS,frameRate,key_resp.keys,key_resp.corr,key_resp.rt,touch_resp.x,touch_resp.y,touch_resp.leftButton,touch_resp.midButton,touch_resp.rightButton,touch_resp.time,touch_resp.clicked_name,rt,corr,trials.thisRepN,trials.thisTrialN,trials.thisN,trials.thisIndex,trials.ran,stimImage,stimWord,CorrAns,blocks.thisRepN,blocks.thisTrialN,blocks.thisN,blocks.thisIndex,blocks.ran,conds_file,label_left,label_right
0.001481255,-0.355777452,1,0,0,instr_done_button,0,0,0,0,1,1,"You will be presented with words or images to classify into categories using either the 'A' or 'L' key. 
 
Try to go as fast as possible while making as few mistakes as possible. 
",mg,1,001,male,2022-04-04_17h21.21.710,openIAT,2020.1.0rc3,MacIntel,60,,,,,,,,,,,,,,,,,,,,,,,,,,,,
0.00078437,-0.379305352,1,0,0,instr_done_button,0,1,1,1,1,2,"Keep in mind: 
 
1) Labels at the top of the screen indicate which catogory goes with which key. 
 
2) Each word or image has a correct catogory classification 
 
3) Keep your index fingers on the A and L keys to enable a rapid response. 
 
4) The test gives no results if you go slow- please try to go as fast as possible 
",mg,1,001,male,2022-04-04_17h21.21.710,openIAT,2020.1.0rc3,MacIntel,60,,,,,,,,,,,,,,,,,,,,,,,,,,,,
,,,,,,,,,,,,,mg,1,001,male,2022-04-04_17h21.21.710,openIAT,2020.1.0rc3,MacIntel,60,a,1,1.5551,,,,,,,,1.5551,1,0,0,0,6,1,stimuli/blank.png,Love,a,,,,,,,,
,,,,,,,,,,,,,mg,1,001,male,2022-04-04_17h21.21.710,openIAT,2020.1.0rc3,MacIntel,60,l,1,0.9697,,,,,,,,0.9697,1,0,1,1,1,1,stimuli/blank.png,Bad,l,,,,,,,,
,,,,,,,,,,,,,mg,1,001,male,2022-04-04_17h21.21.710,openIAT,2020.1.0rc3,MacIntel,60,l,1,1.2981,,,,,,,,1.2981,1,0,2,2,7,1,stimuli/blank.png,Evil,l,,,,,,,,
,,,,,,,,,,,,,mg,1,001,male,2022-04-04_17h21.21.710,openIAT,2020.1.0rc3,MacIntel,60,l,1,0.8368,,,,,,,,0.8368,1,0,3,3,9,1,stimuli/blank.png,Nasty,l,,,,,,,,
,,,,,,,,,,,,,mg,1,001,male,2022-04-04_17h21.21.710,openIAT,2020.1.0rc3,MacIntel,60,a,1,0.5764,,,,,,,,0.5764,1,0,4,4,8,1,stimuli/blank.png,Joy,a,,,,,,,,
,,,,,,,,,,,,,mg,1,001,male,2022-04-04_17h21.21.710,openIAT,2020.1.0rc3,MacIntel,60,l,1,1.9238,,,,,,,,1.9238,1,0,5,5,3,1,stimuli/blank.png,Hurt,l,,,,,,,,
,,,,,,,,,,,,,mg,1,001,male,2022-04-04_17h21.21.710,openIAT,2020.1.0rc3,MacIntel,60,l,1,0.8361,,,,,,,,0.8361,1,0,6,6,5,1,stimuli/blank.png,Agony,l,,,,,,,,
,,,,,,,,,,,,,mg,1,001,male,2022-04-04_17h21.21.710,openIAT,2020.1.0rc3,MacIntel,60,a,1,0.6671,,,,,,,,0.6671,1,0,7,7,2,1,stimuli/blank.png,Happy,a,,,,,,,,
,,,,,,,,,,,,,mg,1,001,male,2022-04-04_17h21.21.710,openIAT,2020.1.0rc3,MacIntel,60,a,1,0.6297,,,,,,,,0.6297,1,0,8,8,0,1,stimuli/blank.png,Good,a,,,,,,,,
,,,,,,,,,,,,,mg,1,001,male,2022-04-04_17h21.21.710,openIAT,2020.1.0rc3,MacIntel,60,l,0,0.8703,,,,,,,,0.8703,0,0,9,9,4,1,stimuli/blank.png,Pleasure,a,,,,,,,,
,,,,,,,,,,,,,mg,1,001,male,2022-04-04_17h21.21.710,openIAT,2020.1.0rc3,MacIntel,60,,,,,,,,,,,,,,,,,,,,,0,0,0,0,1,pos_neg_train.xlsx,"A = 
Positive","L = 
Negative"
,,,,,,,,,,,,,mg,1,001,male,2022-04-04_17h21.21.710,openIAT,2020.1.0rc3,MacIntel,60,l,1,1.0281,,,,,,,,1.0281,1,0,0,0,4,1,stimuli/black_3.jpg,NaN,l,,,,,,,,
,,,,,,,,,,,,,mg,1,001,male,2022-04-04_17h21.21.710,openIAT,2020.1.0rc3,MacIntel,60,l,1,0.8089,,,,,,,,0.8089,1,0,1,1,6,1,stimuli/black_4.jpg,NaN,l,,,,,,,,
,,,,,,,,,,,,,mg,1,001,male,2022-04-04_17h21.21.710,openIAT,2020.1.0rc3,MacIntel,60,a,1,0.6974,,,,,,,,0.6974,1,0,2,2,3,1,stimuli/white_2.jpg,NaN,a,,,,,,,,
,,,,,,,,,,,,,mg,1,001,male,2022-04-04_17h21.21.710,openIAT,2020.1.0rc3,MacIntel,60,a,1,0.7018,,,,,,,,0.7018,1,0,3,3,9,1,stimuli/white_5.jpg,NaN,a,,,,,,,,
,,,,,,,,,,,,,mg,1,001,male,2022-04-04_17h21.21.710,openIAT,2020.1.0rc3,MacIntel,60,a,1,1.0036,,,,,,,,1.0036,1,0,4,4,5,1,stimuli/white_3.jpg,NaN,a,,,,,,,,
,,,,,,,,,,,,,mg,1,001,male,2022-04-04_17h21.21.710,openIAT,2020.1.0rc3,MacIntel,60,l,1,0.704,,,,,,,,0.704,1,0,5,5,8,1,stimuli/black_5.jpg,NaN,l,,,,,,,,
,,,,,,,,,,,,,mg,1,001,male,2022-04-04_17h21.21.710,openIAT,2020.1.0rc3,MacIntel,60,l,1,0.6833,,,,,,,,0.6833,1,0,6,6,2,1,stimuli/black_2.jpg,NaN,l,,,,,,,,
,,,,,,,,,,,,,mg,1,001,male,2022-04-04_17h21.21.710,openIAT,2020.1.0rc3,MacIntel,60,a,1,0.8697,,,,,,,,0.8697,1,0,7,7,1,1,stimuli/white_1.jpg,NaN,a,,,,,,,,
,,,,,,,,,,,,,mg,1,001,male,2022-04-04_17h21.21.710,openIAT,2020.1.0rc3,MacIntel,60,a,1,0.7714,,,,,,,,0.7714,1,0,8,8,7,1,stimuli/white_4.jpg,NaN,a,,,,,,,,
,,,,,,,,,,,,,mg,1,001,male,2022-04-04_17h21.21.710,openIAT,2020.1.0rc3,MacIntel,60,l,1,0.5369,,,,,,,,0.5369,1,0,9,9,0,1,stimuli/black_1.jpg,NaN,l,,,,,,,,
,,,,,,,,,,,,,mg,1,001,male,2022-04-04_17h21.21.710,openIAT,2020.1.0rc3,MacIntel,60,,,,,,,,,,,,,,,,,,,,,0,1,1,1,1,cong_train.xlsx,"A = 
White","L = 
Black"
,,,,,,,,,,,,,mg,1,001,male,2022-04-04_17h21.21.710,openIAT,2020.1.0rc3,MacIntel,60,l,1,0.7625,,,,,,,,0.7625,1,0,0,0,8,1,stimuli/black_5.jpg,NaN,l,,,,,,,,
,,,,,,,,,,,,,mg,1,001,male,2022-04-04_17h21.21.710,openIAT,2020.1.0rc3,MacIntel,60,a,1,0.6727,,,,,,,,0.6727,1,0,1,1,16,1,stimuli/blank.png,Love,a,,,,,,,,
,,,,,,,,,,,,,mg,1,001,male,2022-04-04_17h21.21.710,openIAT,2020.1.0rc3,MacIntel,60,l,1,0.6532,,,,,,,,0.6532,1,0,2,2,13,1,stimuli/blank.png,Hurt,l,,,,,,,,
,,,,,,,,,,,,,mg,1,001,male,2022-04-04_17h21.21.710,openIAT,2020.1.0rc3,MacIntel,60,a,1,0.6265,,,,,,,,0.6265,1,0,3,3,9,1,stimuli/white_5.jpg,NaN,a,,,,,,,,
,,,,,,,,,,,,,mg,1,001,male,2022-04-04_17h21.21.710,openIAT,2020.1.0rc3,MacIntel,60,l,1,0.7578,,,,,,,,0.7578,1,0,4,4,0,1,stimuli/black_1.jpg,NaN,l,,,,,,,,
,,,,,,,,,,,,,mg,1,001,male,2022-04-04_17h21.21.710,openIAT,2020.1.0rc3,MacIntel,60,a,1,0.689,,,,,,,,0.689,1,0,5,5,10,1,stimuli/blank.png,Good,a,,,,,,,,
,,,,,,,,,,,,,mg,1,001,male,2022-04-04_17h21.21.710,openIAT,2020.1.0rc3,MacIntel,60,l,1,0.5465,,,,,,,,0.5465,1,0,6,6,19,1,stimuli/blank.png,Nasty,l,,,,,,,,
,,,,,,,,,,,,,mg,1,001,male,2022-04-04_17h21.21.710,openIAT,2020.1.0rc3,MacIntel,60,a,1,0.574,,,,,,,,0.574,1,0,7,7,1,1,stimuli/white_1.jpg,NaN,a,,,,,,,,
,,,,,,,,,,,,,mg,1,001,male,2022-04-04_17h21.21.710,openIAT,2020.1.0rc3,MacIntel,60,a,1,0.5543,,,,,,,,0.5543,1,0,8,8,5,1,stimuli/white_3.jpg,NaN,a,,,,,,,,
,,,,,,,,,,,,,mg,1,001,male,2022-04-04_17h21.21.710,openIAT,2020.1.0rc3,MacIntel,60,l,1,0.5822,,,,,,,,0.5822,1,0,9,9,4,1,stimuli/black_3.jpg,NaN,l,,,,,,,,
,,,,,,,,,,,,,mg,1,001,male,2022-04-04_17h21.21.710,openIAT,2020.1.0rc3,MacIntel,60,l,1,0.821,,,,,,,,0.821,1,0,10,10,17,1,stimuli/blank.png,Evil,l,,,,,,,,
,,,,,,,,,,,,,mg,1,001,male,2022-04-04_17h21.21.710,openIAT,2020.1.0rc3,MacIntel,60,a,1,0.6956,,,,,,,,0.6956,1,0,11,11,12,1,stimuli/blank.png,Happy,a,,,,,,,,
,,,,,,,,,,,,,mg,1,001,male,2022-04-04_17h21.21.710,openIAT,2020.1.0rc3,MacIntel,60,a,1,0.6898,,,,,,,,0.6898,1,0,12,12,18,1,stimuli/blank.png,Joy,a,,,,,,,,
,,,,,,,,,,,,,mg,1,001,male,2022-04-04_17h21.21.710,openIAT,2020.1.0rc3,MacIntel,60,a,1,0.6224,,,,,,,,0.6224,1,0,13,13,3,1,stimuli/white_2.jpg,NaN,a,,,,,,,,
,,,,,,,,,,,,,mg,1,001,male,2022-04-04_17h21.21.710,openIAT,2020.1.0rc3,MacIntel,60,a,1,0.6467,,,,,,,,0.6467,1,0,14,14,7,1,stimuli/white_4.jpg,NaN,a,,,,,,,,
,,,,,,,,,,,,,mg,1,001,male,2022-04-04_17h21.21.710,openIAT,2020.1.0rc3,MacIntel,60,l,1,0.5342,,,,,,,,0.5342,1,0,15,15,2,1,stimuli/black_2.jpg,NaN,l,,,,,,,,
,,,,,,,,,,,,,mg,1,001,male,2022-04-04_17h21.21.710,openIAT,2020.1.0rc3,MacIntel,60,l,1,0.8872,,,,,,,,0.8872,1,0,16,16,11,1,stimuli/blank.png,Bad,l,,,,,,,,
,,,,,,,,,,,,,mg,1,001,male,2022-04-04_17h21.21.710,openIAT,2020.1.0rc3,MacIntel,60,l,1,0.9708,,,,,,,,0.9708,1,0,17,17,15,1,stimuli/blank.png,Agony,l,,,,,,,,
,,,,,,,,,,,,,mg,1,001,male,2022-04-04_17h21.21.710,openIAT,2020.1.0rc3,MacIntel,60,a,1,0.6066,,,,,,,,0.6066,1,0,18,18,14,1,stimuli/blank.png,Pleasure,a,,,,,,,,
,,,,,,,,,,,,,mg,1,001,male,2022-04-04_17h21.21.710,openIAT,2020.1.0rc3,MacIntel,60,l,1,0.8075,,,,,,,,0.8075,1,0,19,19,6,1,stimuli/black_4.jpg,NaN,l,,,,,,,,
,,,,,,,,,,,,,mg,1,001,male,2022-04-04_17h21.21.710,openIAT,2020.1.0rc3,MacIntel,60,,,,,,,,,,,,,,,,,,,,,0,2,2,2,1,cong_test.xlsx,"A = 
White or 
Positive","L = 
Black or 
Negative"
,,,,,,,,,,,,,mg,1,001,male,2022-04-04_17h21.21.710,openIAT,2020.1.0rc3,MacIntel,60,l,1,0.8347,,,,,,,,0.8347,1,0,0,0,9,1,stimuli/white_5.jpg,,l,,,,,,,,
,,,,,,,,,,,,,mg,1,001,male,2022-04-04_17h21.21.710,openIAT,2020.1.0rc3,MacIntel,60,a,1,0.8667,,,,,,,,0.8667,1,0,1,1,8,1,stimuli/black_5.jpg,,a,,,,,,,,
,,,,,,,,,,,,,mg,1,001,male,2022-04-04_17h21.21.710,openIAT,2020.1.0rc3,MacIntel,60,l,1,0.7887,,,,,,,,0.7887,1,0,2,2,5,1,stimuli/white_3.jpg,,l,,,,,,,,
,,,,,,,,,,,,,mg,1,001,male,2022-04-04_17h21.21.710,openIAT,2020.1.0rc3,MacIntel,60,l,1,0.7317,,,,,,,,0.7317,1,0,3,3,3,1,stimuli/white_2.jpg,,l,,,,,,,,
,,,,,,,,,,,,,mg,1,001,male,2022-04-04_17h21.21.710,openIAT,2020.1.0rc3,MacIntel,60,l,0,1.2027,,,,,,,,1.2027,0,0,4,4,4,1,stimuli/black_3.jpg,,a,,,,,,,,
,,,,,,,,,,,,,mg,1,001,male,2022-04-04_17h21.21.710,openIAT,2020.1.0rc3,MacIntel,60,l,1,0.6685,,,,,,,,0.6685,1,0,5,5,1,1,stimuli/white_1.jpg,,l,,,,,,,,
,,,,,,,,,,,,,mg,1,001,male,2022-04-04_17h21.21.710,openIAT,2020.1.0rc3,MacIntel,60,l,1,0.6922,,,,,,,,0.6922,1,0,6,6,7,1,stimuli/white_4.jpg,,l,,,,,,,,
,,,,,,,,,,,,,mg,1,001,male,2022-04-04_17h21.21.710,openIAT,2020.1.0rc3,MacIntel,60,a,1,0.5936,,,,,,,,0.5936,1,0,7,7,0,1,stimuli/black_1.jpg,,a,,,,,,,,
,,,,,,,,,,,,,mg,1,001,male,2022-04-04_17h21.21.710,openIAT,2020.1.0rc3,MacIntel,60,a,1,0.9114,,,,,,,,0.9114,1,0,8,8,2,1,stimuli/black_2.jpg,,a,,,,,,,,
,,,,,,,,,,,,,mg,1,001,male,2022-04-04_17h21.21.710,openIAT,2020.1.0rc3,MacIntel,60,a,1,0.5032,,,,,,,,0.5032,1,0,9,9,6,1,stimuli/black_4.jpg,,a,,,,,,,,
,,,,,,,,,,,,,mg,1,001,male,2022-04-04_17h21.21.710,openIAT,2020.1.0rc3,MacIntel,60,,,,,,,,,,,,,,,,,,,,,0,3,3,3,1,incong_train.xlsx,"A = 
Black","L = 
White"
,,,,,,,,,,,,,mg,1,001,male,2022-04-04_17h21.21.710,openIAT,2020.1.0rc3,MacIntel,60,a,1,0.8454,,,,,,,,0.8454,1,0,0,0,8,1,stimuli/black_5.jpg,,a,,,,,,,,
,,,,,,,,,,,,,mg,1,001,male,2022-04-04_17h21.21.710,openIAT,2020.1.0rc3,MacIntel,60,l,1,1.5401,,,,,,,,1.5401,1,0,1,1,17,1,stimuli/blank.png,Evil,l,,,,,,,,
,,,,,,,,,,,,,mg,1,001,male,2022-04-04_17h21.21.710,openIAT,2020.1.0rc3,MacIntel,60,a,1,0.9207,,,,,,,,0.9207,1,0,2,2,12,1,stimuli/blank.png,Happy,a,,,,,,,,
,,,,,,,,,,,,,mg,1,001,male,2022-04-04_17h21.21.710,openIAT,2020.1.0rc3,MacIntel,60,a,1,0.855,,,,,,,,0.855,1,0,3,3,2,1,stimuli/black_2.jpg,,a,,,,,,,,
,,,,,,,,,,,,,mg,1,001,male,2022-04-04_17h21.21.710,openIAT,2020.1.0rc3,MacIntel,60,a,1,0.4601,,,,,,,,0.4601,1,0,4,4,0,1,stimuli/black_1.jpg,,a,,,,,,,,
,,,,,,,,,,,,,mg,1,001,male,2022-04-04_17h21.21.710,openIAT,2020.1.0rc3,MacIntel,60,a,1,0.8708,,,,,,,,0.8708,1,0,5,5,14,1,stimuli/blank.png,Pleasure,a,,,,,,,,
,,,,,,,,,,,,,mg,1,001,male,2022-04-04_17h21.21.710,openIAT,2020.1.0rc3,MacIntel,60,l,1,0.7153,,,,,,,,0.7153,1,0,6,6,1,1,stimuli/white_1.jpg,,l,,,,,,,,
,,,,,,,,,,,,,mg,1,001,male,2022-04-04_17h21.21.710,openIAT,2020.1.0rc3,MacIntel,60,a,1,0.5537,,,,,,,,0.5537,1,0,7,7,18,1,stimuli/blank.png,Joy,a,,,,,,,,
,,,,,,,,,,,,,mg,1,001,male,2022-04-04_17h21.21.710,openIAT,2020.1.0rc3,MacIntel,60,a,1,0.5357,,,,,,,,0.5357,1,0,8,8,16,1,stimuli/blank.png,Love,a,,,,,,,,
,,,,,,,,,,,,,mg,1,001,male,2022-04-04_17h21.21.710,openIAT,2020.1.0rc3,MacIntel,60,a,1,0.6029,,,,,,,,0.6029,1,0,9,9,6,1,stimuli/black_4.jpg,,a,,,,,,,,
,,,,,,,,,,,,,mg,1,001,male,2022-04-04_17h21.21.710,openIAT,2020.1.0rc3,MacIntel,60,a,0,0.4149,,,,,,,,0.4149,0,0,10,10,7,1,stimuli/white_4.jpg,,l,,,,,,,,
,,,,,,,,,,,,,mg,1,001,male,2022-04-04_17h21.21.710,openIAT,2020.1.0rc3,MacIntel,60,a,1,0.882,,,,,,,,0.882,1,0,11,11,10,1,stimuli/blank.png,Good,a,,,,,,,,
,,,,,,,,,,,,,mg,1,001,male,2022-04-04_17h21.21.710,openIAT,2020.1.0rc3,MacIntel,60,l,1,1.1454,,,,,,,,1.1454,1,0,12,12,11,1,stimuli/blank.png,Bad,l,,,,,,,,
,,,,,,,,,,,,,mg,1,001,male,2022-04-04_17h21.21.710,openIAT,2020.1.0rc3,MacIntel,60,l,1,0.7864,,,,,,,,0.7864,1,0,13,13,19,1,stimuli/blank.png,Nasty,l,,,,,,,,
,,,,,,,,,,,,,mg,1,001,male,2022-04-04_17h21.21.710,openIAT,2020.1.0rc3,MacIntel,60,l,1,1.2713,,,,,,,,1.2713,1,0,14,14,13,1,stimuli/blank.png,Hurt,l,,,,,,,,
,,,,,,,,,,,,,mg,1,001,male,2022-04-04_17h21.21.710,openIAT,2020.1.0rc3,MacIntel,60,a,1,0.6443,,,,,,,,0.6443,1,0,15,15,4,1,stimuli/black_3.jpg,,a,,,,,,,,
,,,,,,,,,,,,,mg,1,001,male,2022-04-04_17h21.21.710,openIAT,2020.1.0rc3,MacIntel,60,l,1,0.6755,,,,,,,,0.6755,1,0,16,16,3,1,stimuli/white_2.jpg,,l,,,,,,,,
,,,,,,,,,,,,,mg,1,001,male,2022-04-04_17h21.21.710,openIAT,2020.1.0rc3,MacIntel,60,a,0,0.8152,,,,,,,,0.8152,0,0,17,17,9,1,stimuli/white_5.jpg,,l,,,,,,,,
,,,,,,,,,,,,,mg,1,001,male,2022-04-04_17h21.21.710,openIAT,2020.1.0rc3,MacIntel,60,l,1,0.7097,,,,,,,,0.7097,1,0,18,18,5,1,stimuli/white_3.jpg,,l,,,,,,,,
,,,,,,,,,,,,,mg,1,001,male,2022-04-04_17h21.21.710,openIAT,2020.1.0rc3,MacIntel,60,l,1,0.8272,,,,,,,,0.8272,1,0,19,19,15,1,stimuli/blank.png,Agony,l,,,,,,,,
