instr_done_touch.x,instr_done_touch.y,instr_done_touch.leftButton,instr_done_touch.midButton,instr_done_touch.rightButton,instr_done_touch.clicked_name,instruct_pages.thisRepN,instruct_pages.thisTrialN,instruct_pages.thisN,instruct_pages.thisIndex,instruct_pages.ran,pageN,instruct_text,participant,order,session,gender,date,expName,psychopyVersion,OS,frameRate,key_resp.keys,key_resp.corr,key_resp.rt,touch_resp.x,touch_resp.y,touch_resp.leftButton,touch_resp.midButton,touch_resp.rightButton,touch_resp.time,touch_resp.clicked_name,rt,corr,trials.thisRepN,trials.thisTrialN,trials.thisN,trials.thisIndex,trials.ran,stimImage,stimWord,CorrAns,blocks.thisRepN,blocks.thisTrialN,blocks.thisN,blocks.thisIndex,blocks.ran,conds_file,label_left,label_right
0.014351865,-0.393981495,1,0,0,instr_done_button,0,0,0,0,1,1,"You will be presented with words or images to classify into categories using either the 'A' or 'L' key. 
 
Try to go as fast as possible while making as few mistakes as possible. 
",mika,1,001,female,2022-01-13_15h30.32.811,openIAT,2020.1.0rc3,Win32,60,,,,,,,,,,,,,,,,,,,,,,,,,,,,
0.748148173,-0.114351861,0,0,0,,0,1,1,1,1,2,"Keep in mind: 
 
1) Labels at the top of the screen indicate which catogory goes with which key. 
 
2) Each word or image has a correct catogory classification 
 
3) Keep your index fingers on the A and L keys to enable a rapid response. 
 
4) The test gives no results if you go slow- please try to go as fast as possible 
",mika,1,001,female,2022-01-13_15h30.32.811,openIAT,2020.1.0rc3,Win32,60,,,,,,,,,,,,,,,,,,,,,,,,,,,,
,,,,,,,,,,,,,mika,1,001,female,2022-01-13_15h30.32.811,openIAT,2020.1.0rc3,Win32,60,a,1,0.7522,,,,,,,,0.7522,1,0,0,0,6,1,stimuli/blank.png,Love,a,,,,,,,,
,,,,,,,,,,,,,mika,1,001,female,2022-01-13_15h30.32.811,openIAT,2020.1.0rc3,Win32,60,a,1,0.6246,,,,,,,,0.6246,1,0,1,1,0,1,stimuli/blank.png,Good,a,,,,,,,,
,,,,,,,,,,,,,mika,1,001,female,2022-01-13_15h30.32.811,openIAT,2020.1.0rc3,Win32,60,l,1,0.5337,,,,,,,,0.5337,1,0,2,2,5,1,stimuli/blank.png,Agony,l,,,,,,,,
,,,,,,,,,,,,,mika,1,001,female,2022-01-13_15h30.32.811,openIAT,2020.1.0rc3,Win32,60,l,1,0.4862,,,,,,,,0.4862,1,0,3,3,7,1,stimuli/blank.png,Evil,l,,,,,,,,
,,,,,,,,,,,,,mika,1,001,female,2022-01-13_15h30.32.811,openIAT,2020.1.0rc3,Win32,60,a,0,0.4965,,,,,,,,0.4965,0,0,4,4,9,1,stimuli/blank.png,Nasty,l,,,,,,,,
,,,,,,,,,,,,,mika,1,001,female,2022-01-13_15h30.32.811,openIAT,2020.1.0rc3,Win32,60,a,1,0.6733,,,,,,,,0.6733,1,0,5,5,8,1,stimuli/blank.png,Joy,a,,,,,,,,
,,,,,,,,,,,,,mika,1,001,female,2022-01-13_15h30.32.811,openIAT,2020.1.0rc3,Win32,60,l,1,0.5175,,,,,,,,0.5175,1,0,6,6,1,1,stimuli/blank.png,Bad,l,,,,,,,,
,,,,,,,,,,,,,mika,1,001,female,2022-01-13_15h30.32.811,openIAT,2020.1.0rc3,Win32,60,a,1,0.4962,,,,,,,,0.4962,1,0,7,7,2,1,stimuli/blank.png,Happy,a,,,,,,,,
,,,,,,,,,,,,,mika,1,001,female,2022-01-13_15h30.32.811,openIAT,2020.1.0rc3,Win32,60,l,1,0.4538,,,,,,,,0.4538,1,0,8,8,3,1,stimuli/blank.png,Hurt,l,,,,,,,,
,,,,,,,,,,,,,mika,1,001,female,2022-01-13_15h30.32.811,openIAT,2020.1.0rc3,Win32,60,a,1,0.6832,,,,,,,,0.6832,1,0,9,9,4,1,stimuli/blank.png,Pleasure,a,,,,,,,,
,,,,,,,,,,,,,mika,1,001,female,2022-01-13_15h30.32.811,openIAT,2020.1.0rc3,Win32,60,,,,,,,,,,,,,,,,,,,,,0,0,0,0,1,pos_neg_train.xlsx,"A = 
Positive","L = 
Negative"
,,,,,,,,,,,,,mika,1,001,female,2022-01-13_15h30.32.811,openIAT,2020.1.0rc3,Win32,60,a,1,1.1536,,,,,,,,1.1536,1,0,0,0,7,1,stimuli/white_4.jpg,NaN,a,,,,,,,,
,,,,,,,,,,,,,mika,1,001,female,2022-01-13_15h30.32.811,openIAT,2020.1.0rc3,Win32,60,a,1,0.6137,,,,,,,,0.6137,1,0,1,1,3,1,stimuli/white_2.jpg,NaN,a,,,,,,,,
,,,,,,,,,,,,,mika,1,001,female,2022-01-13_15h30.32.811,openIAT,2020.1.0rc3,Win32,60,l,1,0.6165,,,,,,,,0.6165,1,0,2,2,2,1,stimuli/black_2.jpg,NaN,l,,,,,,,,
,,,,,,,,,,,,,mika,1,001,female,2022-01-13_15h30.32.811,openIAT,2020.1.0rc3,Win32,60,a,1,0.5833,,,,,,,,0.5833,1,0,3,3,9,1,stimuli/white_5.jpg,NaN,a,,,,,,,,
,,,,,,,,,,,,,mika,1,001,female,2022-01-13_15h30.32.811,openIAT,2020.1.0rc3,Win32,60,a,1,0.4423,,,,,,,,0.4423,1,0,4,4,1,1,stimuli/white_1.jpg,NaN,a,,,,,,,,
,,,,,,,,,,,,,mika,1,001,female,2022-01-13_15h30.32.811,openIAT,2020.1.0rc3,Win32,60,l,1,0.7464,,,,,,,,0.7464,1,0,5,5,0,1,stimuli/black_1.jpg,NaN,l,,,,,,,,
,,,,,,,,,,,,,mika,1,001,female,2022-01-13_15h30.32.811,openIAT,2020.1.0rc3,Win32,60,l,1,0.4563,,,,,,,,0.4563,1,0,6,6,6,1,stimuli/black_4.jpg,NaN,l,,,,,,,,
,,,,,,,,,,,,,mika,1,001,female,2022-01-13_15h30.32.811,openIAT,2020.1.0rc3,Win32,60,a,1,0.5246,,,,,,,,0.5246,1,0,7,7,5,1,stimuli/white_3.jpg,NaN,a,,,,,,,,
,,,,,,,,,,,,,mika,1,001,female,2022-01-13_15h30.32.811,openIAT,2020.1.0rc3,Win32,60,l,1,0.504,,,,,,,,0.504,1,0,8,8,8,1,stimuli/black_5.jpg,NaN,l,,,,,,,,
,,,,,,,,,,,,,mika,1,001,female,2022-01-13_15h30.32.811,openIAT,2020.1.0rc3,Win32,60,l,1,0.5503,,,,,,,,0.5503,1,0,9,9,4,1,stimuli/black_3.jpg,NaN,l,,,,,,,,
,,,,,,,,,,,,,mika,1,001,female,2022-01-13_15h30.32.811,openIAT,2020.1.0rc3,Win32,60,,,,,,,,,,,,,,,,,,,,,0,1,1,1,1,cong_train.xlsx,"A = 
White","L = 
Black"
,,,,,,,,,,,,,mika,1,001,female,2022-01-13_15h30.32.811,openIAT,2020.1.0rc3,Win32,60,l,1,0.8908,,,,,,,,0.8908,1,0,0,0,8,1,stimuli/black_5.jpg,NaN,l,,,,,,,,
,,,,,,,,,,,,,mika,1,001,female,2022-01-13_15h30.32.811,openIAT,2020.1.0rc3,Win32,60,a,1,0.6834,,,,,,,,0.6834,1,0,1,1,10,1,stimuli/blank.png,Good,a,,,,,,,,
,,,,,,,,,,,,,mika,1,001,female,2022-01-13_15h30.32.811,openIAT,2020.1.0rc3,Win32,60,a,1,0.5906,,,,,,,,0.5906,1,0,2,2,18,1,stimuli/blank.png,Joy,a,,,,,,,,
,,,,,,,,,,,,,mika,1,001,female,2022-01-13_15h30.32.811,openIAT,2020.1.0rc3,Win32,60,a,1,0.5629,,,,,,,,0.5629,1,0,3,3,16,1,stimuli/blank.png,Love,a,,,,,,,,
,,,,,,,,,,,,,mika,1,001,female,2022-01-13_15h30.32.811,openIAT,2020.1.0rc3,Win32,60,l,1,0.6911,,,,,,,,0.6911,1,0,4,4,4,1,stimuli/black_3.jpg,NaN,l,,,,,,,,
,,,,,,,,,,,,,mika,1,001,female,2022-01-13_15h30.32.811,openIAT,2020.1.0rc3,Win32,60,a,1,0.5852,,,,,,,,0.5852,1,0,5,5,7,1,stimuli/white_4.jpg,NaN,a,,,,,,,,
,,,,,,,,,,,,,mika,1,001,female,2022-01-13_15h30.32.811,openIAT,2020.1.0rc3,Win32,60,l,1,0.8071,,,,,,,,0.8071,1,0,6,6,11,1,stimuli/blank.png,Bad,l,,,,,,,,
,,,,,,,,,,,,,mika,1,001,female,2022-01-13_15h30.32.811,openIAT,2020.1.0rc3,Win32,60,a,1,0.6289,,,,,,,,0.6289,1,0,7,7,1,1,stimuli/white_1.jpg,NaN,a,,,,,,,,
,,,,,,,,,,,,,mika,1,001,female,2022-01-13_15h30.32.811,openIAT,2020.1.0rc3,Win32,60,a,1,0.5328,,,,,,,,0.5328,1,0,8,8,5,1,stimuli/white_3.jpg,NaN,a,,,,,,,,
,,,,,,,,,,,,,mika,1,001,female,2022-01-13_15h30.32.811,openIAT,2020.1.0rc3,Win32,60,a,1,0.7422,,,,,,,,0.7422,1,0,9,9,12,1,stimuli/blank.png,Happy,a,,,,,,,,
,,,,,,,,,,,,,mika,1,001,female,2022-01-13_15h30.32.811,openIAT,2020.1.0rc3,Win32,60,a,1,0.6393,,,,,,,,0.6393,1,0,10,10,14,1,stimuli/blank.png,Pleasure,a,,,,,,,,
,,,,,,,,,,,,,mika,1,001,female,2022-01-13_15h30.32.811,openIAT,2020.1.0rc3,Win32,60,a,1,0.9488,,,,,,,,0.9488,1,0,11,11,9,1,stimuli/white_5.jpg,NaN,a,,,,,,,,
,,,,,,,,,,,,,mika,1,001,female,2022-01-13_15h30.32.811,openIAT,2020.1.0rc3,Win32,60,l,1,0.6041,,,,,,,,0.6041,1,0,12,12,6,1,stimuli/black_4.jpg,NaN,l,,,,,,,,
,,,,,,,,,,,,,mika,1,001,female,2022-01-13_15h30.32.811,openIAT,2020.1.0rc3,Win32,60,l,1,0.5664,,,,,,,,0.5664,1,0,13,13,0,1,stimuli/black_1.jpg,NaN,l,,,,,,,,
,,,,,,,,,,,,,mika,1,001,female,2022-01-13_15h30.32.811,openIAT,2020.1.0rc3,Win32,60,l,1,0.7336,,,,,,,,0.7336,1,0,14,14,13,1,stimuli/blank.png,Hurt,l,,,,,,,,
,,,,,,,,,,,,,mika,1,001,female,2022-01-13_15h30.32.811,openIAT,2020.1.0rc3,Win32,60,l,1,0.6338,,,,,,,,0.6338,1,0,15,15,17,1,stimuli/blank.png,Evil,l,,,,,,,,
,,,,,,,,,,,,,mika,1,001,female,2022-01-13_15h30.32.811,openIAT,2020.1.0rc3,Win32,60,l,1,0.4869,,,,,,,,0.4869,1,0,16,16,2,1,stimuli/black_2.jpg,NaN,l,,,,,,,,
,,,,,,,,,,,,,mika,1,001,female,2022-01-13_15h30.32.811,openIAT,2020.1.0rc3,Win32,60,a,1,1.0204,,,,,,,,1.0204,1,0,17,17,3,1,stimuli/white_2.jpg,NaN,a,,,,,,,,
,,,,,,,,,,,,,mika,1,001,female,2022-01-13_15h30.32.811,openIAT,2020.1.0rc3,Win32,60,l,1,1.0339,,,,,,,,1.0339,1,0,18,18,19,1,stimuli/blank.png,Nasty,l,,,,,,,,
,,,,,,,,,,,,,mika,1,001,female,2022-01-13_15h30.32.811,openIAT,2020.1.0rc3,Win32,60,l,1,0.8793,,,,,,,,0.8793,1,0,19,19,15,1,stimuli/blank.png,Agony,l,,,,,,,,
,,,,,,,,,,,,,mika,1,001,female,2022-01-13_15h30.32.811,openIAT,2020.1.0rc3,Win32,60,,,,,,,,,,,,,,,,,,,,,0,2,2,2,1,cong_test.xlsx,"A = 
White or 
Positive","L = 
Black or 
Negative"
,,,,,,,,,,,,,mika,1,001,female,2022-01-13_15h30.32.811,openIAT,2020.1.0rc3,Win32,60,l,1,0.7344,,,,,,,,0.7344,1,0,0,0,7,1,stimuli/white_4.jpg,,l,,,,,,,,
,,,,,,,,,,,,,mika,1,001,female,2022-01-13_15h30.32.811,openIAT,2020.1.0rc3,Win32,60,a,1,0.5546,,,,,,,,0.5546,1,0,1,1,6,1,stimuli/black_4.jpg,,a,,,,,,,,
,,,,,,,,,,,,,mika,1,001,female,2022-01-13_15h30.32.811,openIAT,2020.1.0rc3,Win32,60,a,1,0.7843,,,,,,,,0.7843,1,0,2,2,0,1,stimuli/black_1.jpg,,a,,,,,,,,
,,,,,,,,,,,,,mika,1,001,female,2022-01-13_15h30.32.811,openIAT,2020.1.0rc3,Win32,60,l,1,0.8006,,,,,,,,0.8006,1,0,3,3,9,1,stimuli/white_5.jpg,,l,,,,,,,,
,,,,,,,,,,,,,mika,1,001,female,2022-01-13_15h30.32.811,openIAT,2020.1.0rc3,Win32,60,a,1,0.5304,,,,,,,,0.5304,1,0,4,4,8,1,stimuli/black_5.jpg,,a,,,,,,,,
,,,,,,,,,,,,,mika,1,001,female,2022-01-13_15h30.32.811,openIAT,2020.1.0rc3,Win32,60,l,1,0.6995,,,,,,,,0.6995,1,0,5,5,3,1,stimuli/white_2.jpg,,l,,,,,,,,
,,,,,,,,,,,,,mika,1,001,female,2022-01-13_15h30.32.811,openIAT,2020.1.0rc3,Win32,60,a,1,0.5248,,,,,,,,0.5248,1,0,6,6,4,1,stimuli/black_3.jpg,,a,,,,,,,,
,,,,,,,,,,,,,mika,1,001,female,2022-01-13_15h30.32.811,openIAT,2020.1.0rc3,Win32,60,l,1,0.7505,,,,,,,,0.7505,1,0,7,7,5,1,stimuli/white_3.jpg,,l,,,,,,,,
,,,,,,,,,,,,,mika,1,001,female,2022-01-13_15h30.32.811,openIAT,2020.1.0rc3,Win32,60,a,1,0.5666,,,,,,,,0.5666,1,0,8,8,2,1,stimuli/black_2.jpg,,a,,,,,,,,
,,,,,,,,,,,,,mika,1,001,female,2022-01-13_15h30.32.811,openIAT,2020.1.0rc3,Win32,60,l,1,0.6211,,,,,,,,0.6211,1,0,9,9,1,1,stimuli/white_1.jpg,,l,,,,,,,,
,,,,,,,,,,,,,mika,1,001,female,2022-01-13_15h30.32.811,openIAT,2020.1.0rc3,Win32,60,,,,,,,,,,,,,,,,,,,,,0,3,3,3,1,incong_train.xlsx,"A = 
Black","L = 
White"
,,,,,,,,,,,,,mika,1,001,female,2022-01-13_15h30.32.811,openIAT,2020.1.0rc3,Win32,60,l,1,1.0068,,,,,,,,1.0068,1,0,0,0,19,1,stimuli/blank.png,Nasty,l,,,,,,,,
,,,,,,,,,,,,,mika,1,001,female,2022-01-13_15h30.32.811,openIAT,2020.1.0rc3,Win32,60,a,1,0.87,,,,,,,,0.87,1,0,1,1,10,1,stimuli/blank.png,Good,a,,,,,,,,
,,,,,,,,,,,,,mika,1,001,female,2022-01-13_15h30.32.811,openIAT,2020.1.0rc3,Win32,60,l,1,0.8863,,,,,,,,0.8863,1,0,2,2,1,1,stimuli/white_1.jpg,,l,,,,,,,,
,,,,,,,,,,,,,mika,1,001,female,2022-01-13_15h30.32.811,openIAT,2020.1.0rc3,Win32,60,l,1,1.4525,,,,,,,,1.4525,1,0,3,3,11,1,stimuli/blank.png,Bad,l,,,,,,,,
,,,,,,,,,,,,,mika,1,001,female,2022-01-13_15h30.32.811,openIAT,2020.1.0rc3,Win32,60,l,0,0.6751,,,,,,,,0.6751,0,0,4,4,8,1,stimuli/black_5.jpg,,a,,,,,,,,
,,,,,,,,,,,,,mika,1,001,female,2022-01-13_15h30.32.811,openIAT,2020.1.0rc3,Win32,60,a,1,0.8666,,,,,,,,0.8666,1,0,5,5,16,1,stimuli/blank.png,Love,a,,,,,,,,
,,,,,,,,,,,,,mika,1,001,female,2022-01-13_15h30.32.811,openIAT,2020.1.0rc3,Win32,60,l,1,0.8838,,,,,,,,0.8838,1,0,6,6,13,1,stimuli/blank.png,Hurt,l,,,,,,,,
,,,,,,,,,,,,,mika,1,001,female,2022-01-13_15h30.32.811,openIAT,2020.1.0rc3,Win32,60,a,1,0.7384,,,,,,,,0.7384,1,0,7,7,2,1,stimuli/black_2.jpg,,a,,,,,,,,
,,,,,,,,,,,,,mika,1,001,female,2022-01-13_15h30.32.811,openIAT,2020.1.0rc3,Win32,60,l,1,0.6731,,,,,,,,0.6731,1,0,8,8,15,1,stimuli/blank.png,Agony,l,,,,,,,,
,,,,,,,,,,,,,mika,1,001,female,2022-01-13_15h30.32.811,openIAT,2020.1.0rc3,Win32,60,l,1,1.0899,,,,,,,,1.0899,1,0,9,9,9,1,stimuli/white_5.jpg,,l,,,,,,,,
,,,,,,,,,,,,,mika,1,001,female,2022-01-13_15h30.32.811,openIAT,2020.1.0rc3,Win32,60,a,1,0.7491,,,,,,,,0.7491,1,0,10,10,0,1,stimuli/black_1.jpg,,a,,,,,,,,
,,,,,,,,,,,,,mika,1,001,female,2022-01-13_15h30.32.811,openIAT,2020.1.0rc3,Win32,60,a,1,0.6205,,,,,,,,0.6205,1,0,11,11,14,1,stimuli/blank.png,Pleasure,a,,,,,,,,
,,,,,,,,,,,,,mika,1,001,female,2022-01-13_15h30.32.811,openIAT,2020.1.0rc3,Win32,60,a,1,0.5158,,,,,,,,0.5158,1,0,12,12,18,1,stimuli/blank.png,Joy,a,,,,,,,,
,,,,,,,,,,,,,mika,1,001,female,2022-01-13_15h30.32.811,openIAT,2020.1.0rc3,Win32,60,a,1,0.5562,,,,,,,,0.5562,1,0,13,13,4,1,stimuli/black_3.jpg,,a,,,,,,,,
,,,,,,,,,,,,,mika,1,001,female,2022-01-13_15h30.32.811,openIAT,2020.1.0rc3,Win32,60,l,1,0.6361,,,,,,,,0.6361,1,0,14,14,3,1,stimuli/white_2.jpg,,l,,,,,,,,
,,,,,,,,,,,,,mika,1,001,female,2022-01-13_15h30.32.811,openIAT,2020.1.0rc3,Win32,60,l,1,0.5558,,,,,,,,0.5558,1,0,15,15,17,1,stimuli/blank.png,Evil,l,,,,,,,,
,,,,,,,,,,,,,mika,1,001,female,2022-01-13_15h30.32.811,openIAT,2020.1.0rc3,Win32,60,a,1,0.5534,,,,,,,,0.5534,1,0,16,16,12,1,stimuli/blank.png,Happy,a,,,,,,,,
,,,,,,,,,,,,,mika,1,001,female,2022-01-13_15h30.32.811,openIAT,2020.1.0rc3,Win32,60,a,1,0.75,,,,,,,,0.75,1,0,17,17,6,1,stimuli/black_4.jpg,,a,,,,,,,,
,,,,,,,,,,,,,mika,1,001,female,2022-01-13_15h30.32.811,openIAT,2020.1.0rc3,Win32,60,l,1,0.5837,,,,,,,,0.5837,1,0,18,18,5,1,stimuli/white_3.jpg,,l,,,,,,,,
,,,,,,,,,,,,,mika,1,001,female,2022-01-13_15h30.32.811,openIAT,2020.1.0rc3,Win32,60,l,1,0.6134,,,,,,,,0.6134,1,0,19,19,7,1,stimuli/white_4.jpg,,l,,,,,,,,
