instr_done_touch.x,instr_done_touch.y,instr_done_touch.leftButton,instr_done_touch.midButton,instr_done_touch.rightButton,instr_done_touch.clicked_name,instruct_pages.thisRepN,instruct_pages.thisTrialN,instruct_pages.thisN,instruct_pages.thisIndex,instruct_pages.ran,pageN,instruct_text,participant,order,session,gender,date,expName,psychopyVersion,OS,frameRate,key_resp.keys,key_resp.corr,key_resp.rt,touch_resp.x,touch_resp.y,touch_resp.leftButton,touch_resp.midButton,touch_resp.rightButton,touch_resp.time,touch_resp.clicked_name,rt,corr,trials.thisRepN,trials.thisTrialN,trials.thisN,trials.thisIndex,trials.ran,stimImage,stimWord,CorrAns,blocks.thisRepN,blocks.thisTrialN,blocks.thisN,blocks.thisIndex,blocks.ran,conds_file,label_left,label_right
0.113888904,-0.409259329,1,0,0,instr_done_button,0,0,0,0,1,1,"You will be presented with words or images to classify into categories using either the 'A' or 'L' key. 
 
Try to go as fast as possible while making as few mistakes as possible. 
",Mila,1,001,female,2020-12-03_14h43.05.429,openIAT,2020.1.0rc3,Win32,60,,,,,,,,,,,,,,,,,,,,,,,,,,,,
0.113888904,-0.409259329,1,0,0,instr_done_button,0,1,1,1,1,2,"Keep in mind: 
 
1) Labels at the top of the screen indicate which catogory goes with which key. 
 
2) Each word or image has a correct catogory classification 
 
3) Keep your index fingers on the A and L keys to enable a rapid response. 
 
4) The test gives no results if you go slow- please try to go as fast as possible 
",Mila,1,001,female,2020-12-03_14h43.05.429,openIAT,2020.1.0rc3,Win32,60,,,,,,,,,,,,,,,,,,,,,,,,,,,,
,,,,,,,,,,,,,Mila,1,001,female,2020-12-03_14h43.05.429,openIAT,2020.1.0rc3,Win32,60,l,1,1.4537,,,,,,,,1.4537,1,0,0,0,3,1,stimuli/blank.png,Hurt,l,,,,,,,,
,,,,,,,,,,,,,Mila,1,001,female,2020-12-03_14h43.05.429,openIAT,2020.1.0rc3,Win32,60,a,1,0.544645,,,,,,,,0.544645,1,0,1,1,6,1,stimuli/blank.png,Love,a,,,,,,,,
,,,,,,,,,,,,,Mila,1,001,female,2020-12-03_14h43.05.429,openIAT,2020.1.0rc3,Win32,60,a,1,0.408515,,,,,,,,0.408515,1,0,2,2,2,1,stimuli/blank.png,Happy,a,,,,,,,,
,,,,,,,,,,,,,Mila,1,001,female,2020-12-03_14h43.05.429,openIAT,2020.1.0rc3,Win32,60,l,1,0.3467,,,,,,,,0.3467,1,0,3,3,1,1,stimuli/blank.png,Bad,l,,,,,,,,
,,,,,,,,,,,,,Mila,1,001,female,2020-12-03_14h43.05.429,openIAT,2020.1.0rc3,Win32,60,l,1,0.437615,,,,,,,,0.437615,1,0,4,4,7,1,stimuli/blank.png,Evil,l,,,,,,,,
,,,,,,,,,,,,,Mila,1,001,female,2020-12-03_14h43.05.429,openIAT,2020.1.0rc3,Win32,60,l,0,0.405275,,,,,,,,0.405275,0,0,5,5,0,1,stimuli/blank.png,Good,a,,,,,,,,
,,,,,,,,,,,,,Mila,1,001,female,2020-12-03_14h43.05.429,openIAT,2020.1.0rc3,Win32,60,l,1,0.52961,,,,,,,,0.52961,1,0,6,6,5,1,stimuli/blank.png,Agony,l,,,,,,,,
,,,,,,,,,,,,,Mila,1,001,female,2020-12-03_14h43.05.429,openIAT,2020.1.0rc3,Win32,60,a,1,0.506375,,,,,,,,0.506375,1,0,7,7,4,1,stimuli/blank.png,Pleasure,a,,,,,,,,
,,,,,,,,,,,,,Mila,1,001,female,2020-12-03_14h43.05.429,openIAT,2020.1.0rc3,Win32,60,a,1,0.50492,,,,,,,,0.50492,1,0,8,8,8,1,stimuli/blank.png,Joy,a,,,,,,,,
,,,,,,,,,,,,,Mila,1,001,female,2020-12-03_14h43.05.429,openIAT,2020.1.0rc3,Win32,60,l,1,0.48505,,,,,,,,0.48505,1,0,9,9,9,1,stimuli/blank.png,Nasty,l,,,,,,,,
,,,,,,,,,,,,,Mila,1,001,female,2020-12-03_14h43.05.429,openIAT,2020.1.0rc3,Win32,60,,,,,,,,,,,,,,,,,,,,,0,0,0,0,1,pos_neg_train.xlsx,"A = 
Positive","L = 
Negative"
,,,,,,,,,,,,,Mila,1,001,female,2020-12-03_14h43.05.429,openIAT,2020.1.0rc3,Win32,60,l,1,0.843705,,,,,,,,0.843705,1,0,0,0,2,1,stimuli/black_2.jpg,NaN,l,,,,,,,,
,,,,,,,,,,,,,Mila,1,001,female,2020-12-03_14h43.05.429,openIAT,2020.1.0rc3,Win32,60,l,0,0.487025,,,,,,,,0.487025,0,0,1,1,9,1,stimuli/white_5.jpg,NaN,a,,,,,,,,
,,,,,,,,,,,,,Mila,1,001,female,2020-12-03_14h43.05.429,openIAT,2020.1.0rc3,Win32,60,a,1,0.73911,,,,,,,,0.73911,1,0,2,2,5,1,stimuli/white_3.jpg,NaN,a,,,,,,,,
,,,,,,,,,,,,,Mila,1,001,female,2020-12-03_14h43.05.429,openIAT,2020.1.0rc3,Win32,60,l,1,0.59264,,,,,,,,0.59264,1,0,3,3,4,1,stimuli/black_3.jpg,NaN,l,,,,,,,,
,,,,,,,,,,,,,Mila,1,001,female,2020-12-03_14h43.05.429,openIAT,2020.1.0rc3,Win32,60,l,1,0.42529,,,,,,,,0.42529,1,0,4,4,0,1,stimuli/black_1.jpg,NaN,l,,,,,,,,
,,,,,,,,,,,,,Mila,1,001,female,2020-12-03_14h43.05.429,openIAT,2020.1.0rc3,Win32,60,a,1,0.763815,,,,,,,,0.763815,1,0,5,5,7,1,stimuli/white_4.jpg,NaN,a,,,,,,,,
,,,,,,,,,,,,,Mila,1,001,female,2020-12-03_14h43.05.429,openIAT,2020.1.0rc3,Win32,60,a,1,0.72012,,,,,,,,0.72012,1,0,6,6,1,1,stimuli/white_1.jpg,NaN,a,,,,,,,,
,,,,,,,,,,,,,Mila,1,001,female,2020-12-03_14h43.05.429,openIAT,2020.1.0rc3,Win32,60,l,0,0.84055,,,,,,,,0.84055,0,0,7,7,3,1,stimuli/white_2.jpg,NaN,a,,,,,,,,
,,,,,,,,,,,,,Mila,1,001,female,2020-12-03_14h43.05.429,openIAT,2020.1.0rc3,Win32,60,l,1,0.538915,,,,,,,,0.538915,1,0,8,8,6,1,stimuli/black_4.jpg,NaN,l,,,,,,,,
,,,,,,,,,,,,,Mila,1,001,female,2020-12-03_14h43.05.429,openIAT,2020.1.0rc3,Win32,60,l,1,0.54662,,,,,,,,0.54662,1,0,9,9,8,1,stimuli/black_5.jpg,NaN,l,,,,,,,,
,,,,,,,,,,,,,Mila,1,001,female,2020-12-03_14h43.05.429,openIAT,2020.1.0rc3,Win32,60,,,,,,,,,,,,,,,,,,,,,0,1,1,1,1,cong_train.xlsx,"A = 
White","L = 
Black"
,,,,,,,,,,,,,Mila,1,001,female,2020-12-03_14h43.05.429,openIAT,2020.1.0rc3,Win32,60,a,1,0.55325,,,,,,,,0.55325,1,0,0,0,12,1,stimuli/blank.png,Happy,a,,,,,,,,
,,,,,,,,,,,,,Mila,1,001,female,2020-12-03_14h43.05.429,openIAT,2020.1.0rc3,Win32,60,l,1,1.985385,,,,,,,,1.985385,1,0,1,1,8,1,stimuli/black_5.jpg,NaN,l,,,,,,,,
,,,,,,,,,,,,,Mila,1,001,female,2020-12-03_14h43.05.429,openIAT,2020.1.0rc3,Win32,60,l,1,0.91084,,,,,,,,0.91084,1,0,2,2,0,1,stimuli/black_1.jpg,NaN,l,,,,,,,,
,,,,,,,,,,,,,Mila,1,001,female,2020-12-03_14h43.05.429,openIAT,2020.1.0rc3,Win32,60,l,1,0.5555,,,,,,,,0.5555,1,0,3,3,19,1,stimuli/blank.png,Nasty,l,,,,,,,,
,,,,,,,,,,,,,Mila,1,001,female,2020-12-03_14h43.05.429,openIAT,2020.1.0rc3,Win32,60,l,1,0.5282,,,,,,,,0.5282,1,0,4,4,17,1,stimuli/blank.png,Evil,l,,,,,,,,
,,,,,,,,,,,,,Mila,1,001,female,2020-12-03_14h43.05.429,openIAT,2020.1.0rc3,Win32,60,a,1,0.41644,,,,,,,,0.41644,1,0,5,5,16,1,stimuli/blank.png,Love,a,,,,,,,,
,,,,,,,,,,,,,Mila,1,001,female,2020-12-03_14h43.05.429,openIAT,2020.1.0rc3,Win32,60,a,1,0.65675,,,,,,,,0.65675,1,0,6,6,7,1,stimuli/white_4.jpg,NaN,a,,,,,,,,
,,,,,,,,,,,,,Mila,1,001,female,2020-12-03_14h43.05.429,openIAT,2020.1.0rc3,Win32,60,l,1,0.63838,,,,,,,,0.63838,1,0,7,7,15,1,stimuli/blank.png,Agony,l,,,,,,,,
,,,,,,,,,,,,,Mila,1,001,female,2020-12-03_14h43.05.429,openIAT,2020.1.0rc3,Win32,60,l,1,1.29091,,,,,,,,1.29091,1,0,8,8,4,1,stimuli/black_3.jpg,NaN,l,,,,,,,,
,,,,,,,,,,,,,Mila,1,001,female,2020-12-03_14h43.05.429,openIAT,2020.1.0rc3,Win32,60,a,1,0.71864,,,,,,,,0.71864,1,0,9,9,9,1,stimuli/white_5.jpg,NaN,a,,,,,,,,
,,,,,,,,,,,,,Mila,1,001,female,2020-12-03_14h43.05.429,openIAT,2020.1.0rc3,Win32,60,l,1,0.505025,,,,,,,,0.505025,1,0,10,10,11,1,stimuli/blank.png,Bad,l,,,,,,,,
,,,,,,,,,,,,,Mila,1,001,female,2020-12-03_14h43.05.429,openIAT,2020.1.0rc3,Win32,60,a,1,0.461785,,,,,,,,0.461785,1,0,11,11,10,1,stimuli/blank.png,Good,a,,,,,,,,
,,,,,,,,,,,,,Mila,1,001,female,2020-12-03_14h43.05.429,openIAT,2020.1.0rc3,Win32,60,l,1,0.52846,,,,,,,,0.52846,1,0,12,12,13,1,stimuli/blank.png,Hurt,l,,,,,,,,
,,,,,,,,,,,,,Mila,1,001,female,2020-12-03_14h43.05.429,openIAT,2020.1.0rc3,Win32,60,l,1,0.485785,,,,,,,,0.485785,1,0,13,13,6,1,stimuli/black_4.jpg,NaN,l,,,,,,,,
,,,,,,,,,,,,,Mila,1,001,female,2020-12-03_14h43.05.429,openIAT,2020.1.0rc3,Win32,60,a,1,0.541745,,,,,,,,0.541745,1,0,14,14,14,1,stimuli/blank.png,Pleasure,a,,,,,,,,
,,,,,,,,,,,,,Mila,1,001,female,2020-12-03_14h43.05.429,openIAT,2020.1.0rc3,Win32,60,a,1,0.634075,,,,,,,,0.634075,1,0,15,15,1,1,stimuli/white_1.jpg,NaN,a,,,,,,,,
,,,,,,,,,,,,,Mila,1,001,female,2020-12-03_14h43.05.429,openIAT,2020.1.0rc3,Win32,60,l,1,0.735645,,,,,,,,0.735645,1,0,16,16,2,1,stimuli/black_2.jpg,NaN,l,,,,,,,,
,,,,,,,,,,,,,Mila,1,001,female,2020-12-03_14h43.05.429,openIAT,2020.1.0rc3,Win32,60,a,1,0.538595,,,,,,,,0.538595,1,0,17,17,18,1,stimuli/blank.png,Joy,a,,,,,,,,
,,,,,,,,,,,,,Mila,1,001,female,2020-12-03_14h43.05.429,openIAT,2020.1.0rc3,Win32,60,a,1,0.717745,,,,,,,,0.717745,1,0,18,18,3,1,stimuli/white_2.jpg,NaN,a,,,,,,,,
,,,,,,,,,,,,,Mila,1,001,female,2020-12-03_14h43.05.429,openIAT,2020.1.0rc3,Win32,60,a,1,0.702835,,,,,,,,0.702835,1,0,19,19,5,1,stimuli/white_3.jpg,NaN,a,,,,,,,,
,,,,,,,,,,,,,Mila,1,001,female,2020-12-03_14h43.05.429,openIAT,2020.1.0rc3,Win32,60,,,,,,,,,,,,,,,,,,,,,0,2,2,2,1,cong_test.xlsx,"A = 
White or 
Positive","L = 
Black or 
Negative"
,,,,,,,,,,,,,Mila,1,001,female,2020-12-03_14h43.05.429,openIAT,2020.1.0rc3,Win32,60,a,1,1.027875,,,,,,,,1.027875,1,0,0,0,8,1,stimuli/black_5.jpg,,a,,,,,,,,
,,,,,,,,,,,,,Mila,1,001,female,2020-12-03_14h43.05.429,openIAT,2020.1.0rc3,Win32,60,l,1,0.73806,,,,,,,,0.73806,1,0,1,1,5,1,stimuli/white_3.jpg,,l,,,,,,,,
,,,,,,,,,,,,,Mila,1,001,female,2020-12-03_14h43.05.429,openIAT,2020.1.0rc3,Win32,60,l,1,0.62429,,,,,,,,0.62429,1,0,2,2,7,1,stimuli/white_4.jpg,,l,,,,,,,,
,,,,,,,,,,,,,Mila,1,001,female,2020-12-03_14h43.05.429,openIAT,2020.1.0rc3,Win32,60,a,1,0.410755,,,,,,,,0.410755,1,0,3,3,0,1,stimuli/black_1.jpg,,a,,,,,,,,
,,,,,,,,,,,,,Mila,1,001,female,2020-12-03_14h43.05.429,openIAT,2020.1.0rc3,Win32,60,l,1,0.464825,,,,,,,,0.464825,1,0,4,4,1,1,stimuli/white_1.jpg,,l,,,,,,,,
,,,,,,,,,,,,,Mila,1,001,female,2020-12-03_14h43.05.429,openIAT,2020.1.0rc3,Win32,60,l,1,0.42593,,,,,,,,0.42593,1,0,5,5,9,1,stimuli/white_5.jpg,,l,,,,,,,,
,,,,,,,,,,,,,Mila,1,001,female,2020-12-03_14h43.05.429,openIAT,2020.1.0rc3,Win32,60,a,1,0.456525,,,,,,,,0.456525,1,0,6,6,6,1,stimuli/black_4.jpg,,a,,,,,,,,
,,,,,,,,,,,,,Mila,1,001,female,2020-12-03_14h43.05.429,openIAT,2020.1.0rc3,Win32,60,a,1,0.668785,,,,,,,,0.668785,1,0,7,7,2,1,stimuli/black_2.jpg,,a,,,,,,,,
,,,,,,,,,,,,,Mila,1,001,female,2020-12-03_14h43.05.429,openIAT,2020.1.0rc3,Win32,60,a,1,0.6214,,,,,,,,0.6214,1,0,8,8,4,1,stimuli/black_3.jpg,,a,,,,,,,,
,,,,,,,,,,,,,Mila,1,001,female,2020-12-03_14h43.05.429,openIAT,2020.1.0rc3,Win32,60,l,1,0.483805,,,,,,,,0.483805,1,0,9,9,3,1,stimuli/white_2.jpg,,l,,,,,,,,
,,,,,,,,,,,,,Mila,1,001,female,2020-12-03_14h43.05.429,openIAT,2020.1.0rc3,Win32,60,,,,,,,,,,,,,,,,,,,,,0,3,3,3,1,incong_train.xlsx,"A = 
Black","L = 
White"
,,,,,,,,,,,,,Mila,1,001,female,2020-12-03_14h43.05.429,openIAT,2020.1.0rc3,Win32,60,a,1,0.87054,,,,,,,,0.87054,1,0,0,0,12,1,stimuli/blank.png,Happy,a,,,,,,,,
,,,,,,,,,,,,,Mila,1,001,female,2020-12-03_14h43.05.429,openIAT,2020.1.0rc3,Win32,60,a,0,0.527745,,,,,,,,0.527745,0,0,1,1,17,1,stimuli/blank.png,Evil,l,,,,,,,,
,,,,,,,,,,,,,Mila,1,001,female,2020-12-03_14h43.05.429,openIAT,2020.1.0rc3,Win32,60,l,1,0.691415,,,,,,,,0.691415,1,0,2,2,19,1,stimuli/blank.png,Nasty,l,,,,,,,,
,,,,,,,,,,,,,Mila,1,001,female,2020-12-03_14h43.05.429,openIAT,2020.1.0rc3,Win32,60,a,1,0.539585,,,,,,,,0.539585,1,0,3,3,16,1,stimuli/blank.png,Love,a,,,,,,,,
,,,,,,,,,,,,,Mila,1,001,female,2020-12-03_14h43.05.429,openIAT,2020.1.0rc3,Win32,60,a,1,1.276375,,,,,,,,1.276375,1,0,4,4,8,1,stimuli/black_5.jpg,,a,,,,,,,,
,,,,,,,,,,,,,Mila,1,001,female,2020-12-03_14h43.05.429,openIAT,2020.1.0rc3,Win32,60,a,1,0.74154,,,,,,,,0.74154,1,0,5,5,14,1,stimuli/blank.png,Pleasure,a,,,,,,,,
,,,,,,,,,,,,,Mila,1,001,female,2020-12-03_14h43.05.429,openIAT,2020.1.0rc3,Win32,60,a,1,0.707955,,,,,,,,0.707955,1,0,6,6,6,1,stimuli/black_4.jpg,,a,,,,,,,,
,,,,,,,,,,,,,Mila,1,001,female,2020-12-03_14h43.05.429,openIAT,2020.1.0rc3,Win32,60,l,1,0.880075,,,,,,,,0.880075,1,0,7,7,15,1,stimuli/blank.png,Agony,l,,,,,,,,
,,,,,,,,,,,,,Mila,1,001,female,2020-12-03_14h43.05.429,openIAT,2020.1.0rc3,Win32,60,l,1,0.54206,,,,,,,,0.54206,1,0,8,8,13,1,stimuli/blank.png,Hurt,l,,,,,,,,
,,,,,,,,,,,,,Mila,1,001,female,2020-12-03_14h43.05.429,openIAT,2020.1.0rc3,Win32,60,l,1,0.89528,,,,,,,,0.89528,1,0,9,9,3,1,stimuli/white_2.jpg,,l,,,,,,,,
,,,,,,,,,,,,,Mila,1,001,female,2020-12-03_14h43.05.429,openIAT,2020.1.0rc3,Win32,60,l,1,1.12264,,,,,,,,1.12264,1,0,10,10,11,1,stimuli/blank.png,Bad,l,,,,,,,,
,,,,,,,,,,,,,Mila,1,001,female,2020-12-03_14h43.05.429,openIAT,2020.1.0rc3,Win32,60,l,1,1.138955,,,,,,,,1.138955,1,0,11,11,1,1,stimuli/white_1.jpg,,l,,,,,,,,
,,,,,,,,,,,,,Mila,1,001,female,2020-12-03_14h43.05.429,openIAT,2020.1.0rc3,Win32,60,a,1,0.48899,,,,,,,,0.48899,1,0,12,12,0,1,stimuli/black_1.jpg,,a,,,,,,,,
,,,,,,,,,,,,,Mila,1,001,female,2020-12-03_14h43.05.429,openIAT,2020.1.0rc3,Win32,60,l,1,0.64421,,,,,,,,0.64421,1,0,13,13,7,1,stimuli/white_4.jpg,,l,,,,,,,,
,,,,,,,,,,,,,Mila,1,001,female,2020-12-03_14h43.05.429,openIAT,2020.1.0rc3,Win32,60,a,1,0.447,,,,,,,,0.447,1,0,14,14,18,1,stimuli/blank.png,Joy,a,,,,,,,,
,,,,,,,,,,,,,Mila,1,001,female,2020-12-03_14h43.05.429,openIAT,2020.1.0rc3,Win32,60,a,1,0.60026,,,,,,,,0.60026,1,0,15,15,10,1,stimuli/blank.png,Good,a,,,,,,,,
,,,,,,,,,,,,,Mila,1,001,female,2020-12-03_14h43.05.429,openIAT,2020.1.0rc3,Win32,60,a,1,0.68658,,,,,,,,0.68658,1,0,16,16,4,1,stimuli/black_3.jpg,,a,,,,,,,,
,,,,,,,,,,,,,Mila,1,001,female,2020-12-03_14h43.05.429,openIAT,2020.1.0rc3,Win32,60,l,1,0.540285,,,,,,,,0.540285,1,0,17,17,9,1,stimuli/white_5.jpg,,l,,,,,,,,
,,,,,,,,,,,,,Mila,1,001,female,2020-12-03_14h43.05.429,openIAT,2020.1.0rc3,Win32,60,a,1,0.56501,,,,,,,,0.56501,1,0,18,18,2,1,stimuli/black_2.jpg,,a,,,,,,,,
,,,,,,,,,,,,,Mila,1,001,female,2020-12-03_14h43.05.429,openIAT,2020.1.0rc3,Win32,60,l,1,0.60455,,,,,,,,0.60455,1,0,19,19,5,1,stimuli/white_3.jpg,,l,,,,,,,,
