instr_done_touch.x,instr_done_touch.y,instr_done_touch.leftButton,instr_done_touch.midButton,instr_done_touch.rightButton,instr_done_touch.clicked_name,instruct_pages.thisRepN,instruct_pages.thisTrialN,instruct_pages.thisN,instruct_pages.thisIndex,instruct_pages.ran,pageN,instruct_text,participant,order,session,gender,date,expName,psychopyVersion,OS,frameRate,key_resp.keys,key_resp.corr,key_resp.rt,touch_resp.x,touch_resp.y,touch_resp.leftButton,touch_resp.midButton,touch_resp.rightButton,touch_resp.time,touch_resp.clicked_name,rt,corr,trials.thisRepN,trials.thisTrialN,trials.thisN,trials.thisIndex,trials.ran,stimImage,stimWord,CorrAns,blocks.thisRepN,blocks.thisTrialN,blocks.thisN,blocks.thisIndex,blocks.ran,conds_file,label_left,label_right
0.014500868,-0.404205729,1,0,0,instr_done_button,0,0,0,0,1,1,"You will be presented with words or images to classify into categories using either the 'A' or 'L' key. 
 
Try to go as fast as possible while making as few mistakes as possible. 
",mml1,1,001,female,2021-02-26_15h37.55.429,openIAT,2020.1.0rc3,MacIntel,60,,,,,,,,,,,,,,,,,,,,,,,,,,,,
0.014500868,-0.404205729,1,0,0,instr_done_button,0,1,1,1,1,2,"Keep in mind: 
 
1) Labels at the top of the screen indicate which catogory goes with which key. 
 
2) Each word or image has a correct catogory classification 
 
3) Keep your index fingers on the A and L keys to enable a rapid response. 
 
4) The test gives no results if you go slow- please try to go as fast as possible 
",mml1,1,001,female,2021-02-26_15h37.55.429,openIAT,2020.1.0rc3,MacIntel,60,,,,,,,,,,,,,,,,,,,,,,,,,,,,
,,,,,,,,,,,,,mml1,1,001,female,2021-02-26_15h37.55.429,openIAT,2020.1.0rc3,MacIntel,60,a,1,0.837185,,,,,,,,0.837185,1,0,0,0,2,1,stimuli/blank.png,Happy,a,,,,,,,,
,,,,,,,,,,,,,mml1,1,001,female,2021-02-26_15h37.55.429,openIAT,2020.1.0rc3,MacIntel,60,l,1,0.6013,,,,,,,,0.6013,1,0,1,1,7,1,stimuli/blank.png,Evil,l,,,,,,,,
,,,,,,,,,,,,,mml1,1,001,female,2021-02-26_15h37.55.429,openIAT,2020.1.0rc3,MacIntel,60,a,1,0.87701,,,,,,,,0.87701,1,0,2,2,6,1,stimuli/blank.png,Love,a,,,,,,,,
,,,,,,,,,,,,,mml1,1,001,female,2021-02-26_15h37.55.429,openIAT,2020.1.0rc3,MacIntel,60,a,1,0.595345,,,,,,,,0.595345,1,0,3,3,0,1,stimuli/blank.png,Good,a,,,,,,,,
,,,,,,,,,,,,,mml1,1,001,female,2021-02-26_15h37.55.429,openIAT,2020.1.0rc3,MacIntel,60,l,1,0.564565,,,,,,,,0.564565,1,0,4,4,9,1,stimuli/blank.png,Nasty,l,,,,,,,,
,,,,,,,,,,,,,mml1,1,001,female,2021-02-26_15h37.55.429,openIAT,2020.1.0rc3,MacIntel,60,a,1,0.605925,,,,,,,,0.605925,1,0,5,5,4,1,stimuli/blank.png,Pleasure,a,,,,,,,,
,,,,,,,,,,,,,mml1,1,001,female,2021-02-26_15h37.55.429,openIAT,2020.1.0rc3,MacIntel,60,l,1,0.623845,,,,,,,,0.623845,1,0,6,6,5,1,stimuli/blank.png,Agony,l,,,,,,,,
,,,,,,,,,,,,,mml1,1,001,female,2021-02-26_15h37.55.429,openIAT,2020.1.0rc3,MacIntel,60,l,1,0.58108,,,,,,,,0.58108,1,0,7,7,1,1,stimuli/blank.png,Bad,l,,,,,,,,
,,,,,,,,,,,,,mml1,1,001,female,2021-02-26_15h37.55.429,openIAT,2020.1.0rc3,MacIntel,60,l,1,0.611725,,,,,,,,0.611725,1,0,8,8,3,1,stimuli/blank.png,Hurt,l,,,,,,,,
,,,,,,,,,,,,,mml1,1,001,female,2021-02-26_15h37.55.429,openIAT,2020.1.0rc3,MacIntel,60,a,1,0.658385,,,,,,,,0.658385,1,0,9,9,8,1,stimuli/blank.png,Joy,a,,,,,,,,
,,,,,,,,,,,,,mml1,1,001,female,2021-02-26_15h37.55.429,openIAT,2020.1.0rc3,MacIntel,60,,,,,,,,,,,,,,,,,,,,,0,0,0,0,1,pos_neg_train.xlsx,"A = 
Positive","L = 
Negative"
,,,,,,,,,,,,,mml1,1,001,female,2021-02-26_15h37.55.429,openIAT,2020.1.0rc3,MacIntel,60,l,1,1.09532,,,,,,,,1.09532,1,0,0,0,0,1,stimuli/black_1.jpg,NaN,l,,,,,,,,
,,,,,,,,,,,,,mml1,1,001,female,2021-02-26_15h37.55.429,openIAT,2020.1.0rc3,MacIntel,60,l,1,0.907455,,,,,,,,0.907455,1,0,1,1,2,1,stimuli/black_2.jpg,NaN,l,,,,,,,,
,,,,,,,,,,,,,mml1,1,001,female,2021-02-26_15h37.55.429,openIAT,2020.1.0rc3,MacIntel,60,l,0,0.54289,,,,,,,,0.54289,0,0,2,2,5,1,stimuli/white_3.jpg,NaN,a,,,,,,,,
,,,,,,,,,,,,,mml1,1,001,female,2021-02-26_15h37.55.429,openIAT,2020.1.0rc3,MacIntel,60,l,1,0.66119,,,,,,,,0.66119,1,0,3,3,6,1,stimuli/black_4.jpg,NaN,l,,,,,,,,
,,,,,,,,,,,,,mml1,1,001,female,2021-02-26_15h37.55.429,openIAT,2020.1.0rc3,MacIntel,60,l,1,0.706335,,,,,,,,0.706335,1,0,4,4,8,1,stimuli/black_5.jpg,NaN,l,,,,,,,,
,,,,,,,,,,,,,mml1,1,001,female,2021-02-26_15h37.55.429,openIAT,2020.1.0rc3,MacIntel,60,a,1,0.80961,,,,,,,,0.80961,1,0,5,5,9,1,stimuli/white_5.jpg,NaN,a,,,,,,,,
,,,,,,,,,,,,,mml1,1,001,female,2021-02-26_15h37.55.429,openIAT,2020.1.0rc3,MacIntel,60,a,1,0.71575,,,,,,,,0.71575,1,0,6,6,1,1,stimuli/white_1.jpg,NaN,a,,,,,,,,
,,,,,,,,,,,,,mml1,1,001,female,2021-02-26_15h37.55.429,openIAT,2020.1.0rc3,MacIntel,60,l,1,0.610635,,,,,,,,0.610635,1,0,7,7,4,1,stimuli/black_3.jpg,NaN,l,,,,,,,,
,,,,,,,,,,,,,mml1,1,001,female,2021-02-26_15h37.55.429,openIAT,2020.1.0rc3,MacIntel,60,a,1,0.995085,,,,,,,,0.995085,1,0,8,8,3,1,stimuli/white_2.jpg,NaN,a,,,,,,,,
,,,,,,,,,,,,,mml1,1,001,female,2021-02-26_15h37.55.429,openIAT,2020.1.0rc3,MacIntel,60,a,1,0.581865,,,,,,,,0.581865,1,0,9,9,7,1,stimuli/white_4.jpg,NaN,a,,,,,,,,
,,,,,,,,,,,,,mml1,1,001,female,2021-02-26_15h37.55.429,openIAT,2020.1.0rc3,MacIntel,60,,,,,,,,,,,,,,,,,,,,,0,1,1,1,1,cong_train.xlsx,"A = 
White","L = 
Black"
,,,,,,,,,,,,,mml1,1,001,female,2021-02-26_15h37.55.429,openIAT,2020.1.0rc3,MacIntel,60,l,1,1.15834,,,,,,,,1.15834,1,0,0,0,0,1,stimuli/black_1.jpg,NaN,l,,,,,,,,
,,,,,,,,,,,,,mml1,1,001,female,2021-02-26_15h37.55.429,openIAT,2020.1.0rc3,MacIntel,60,a,1,0.560015,,,,,,,,0.560015,1,0,1,1,18,1,stimuli/blank.png,Joy,a,,,,,,,,
,,,,,,,,,,,,,mml1,1,001,female,2021-02-26_15h37.55.429,openIAT,2020.1.0rc3,MacIntel,60,l,1,0.58965,,,,,,,,0.58965,1,0,2,2,15,1,stimuli/blank.png,Agony,l,,,,,,,,
,,,,,,,,,,,,,mml1,1,001,female,2021-02-26_15h37.55.429,openIAT,2020.1.0rc3,MacIntel,60,l,1,0.660795,,,,,,,,0.660795,1,0,3,3,6,1,stimuli/black_4.jpg,NaN,l,,,,,,,,
,,,,,,,,,,,,,mml1,1,001,female,2021-02-26_15h37.55.429,openIAT,2020.1.0rc3,MacIntel,60,a,1,0.628465,,,,,,,,0.628465,1,0,4,4,16,1,stimuli/blank.png,Love,a,,,,,,,,
,,,,,,,,,,,,,mml1,1,001,female,2021-02-26_15h37.55.429,openIAT,2020.1.0rc3,MacIntel,60,a,1,0.560925,,,,,,,,0.560925,1,0,5,5,12,1,stimuli/blank.png,Happy,a,,,,,,,,
,,,,,,,,,,,,,mml1,1,001,female,2021-02-26_15h37.55.429,openIAT,2020.1.0rc3,MacIntel,60,a,1,0.589605,,,,,,,,0.589605,1,0,6,6,10,1,stimuli/blank.png,Good,a,,,,,,,,
,,,,,,,,,,,,,mml1,1,001,female,2021-02-26_15h37.55.429,openIAT,2020.1.0rc3,MacIntel,60,l,1,0.55558,,,,,,,,0.55558,1,0,7,7,19,1,stimuli/blank.png,Nasty,l,,,,,,,,
,,,,,,,,,,,,,mml1,1,001,female,2021-02-26_15h37.55.429,openIAT,2020.1.0rc3,MacIntel,60,a,1,0.694545,,,,,,,,0.694545,1,0,8,8,14,1,stimuli/blank.png,Pleasure,a,,,,,,,,
,,,,,,,,,,,,,mml1,1,001,female,2021-02-26_15h37.55.429,openIAT,2020.1.0rc3,MacIntel,60,l,1,0.60885,,,,,,,,0.60885,1,0,9,9,17,1,stimuli/blank.png,Evil,l,,,,,,,,
,,,,,,,,,,,,,mml1,1,001,female,2021-02-26_15h37.55.429,openIAT,2020.1.0rc3,MacIntel,60,l,1,0.62722,,,,,,,,0.62722,1,0,10,10,13,1,stimuli/blank.png,Hurt,l,,,,,,,,
,,,,,,,,,,,,,mml1,1,001,female,2021-02-26_15h37.55.429,openIAT,2020.1.0rc3,MacIntel,60,l,1,0.608525,,,,,,,,0.608525,1,0,11,11,11,1,stimuli/blank.png,Bad,l,,,,,,,,
,,,,,,,,,,,,,mml1,1,001,female,2021-02-26_15h37.55.429,openIAT,2020.1.0rc3,MacIntel,60,l,1,0.93213,,,,,,,,0.93213,1,0,12,12,8,1,stimuli/black_5.jpg,NaN,l,,,,,,,,
,,,,,,,,,,,,,mml1,1,001,female,2021-02-26_15h37.55.429,openIAT,2020.1.0rc3,MacIntel,60,a,1,0.612785,,,,,,,,0.612785,1,0,13,13,9,1,stimuli/white_5.jpg,NaN,a,,,,,,,,
,,,,,,,,,,,,,mml1,1,001,female,2021-02-26_15h37.55.429,openIAT,2020.1.0rc3,MacIntel,60,a,1,0.66731,,,,,,,,0.66731,1,0,14,14,3,1,stimuli/white_2.jpg,NaN,a,,,,,,,,
,,,,,,,,,,,,,mml1,1,001,female,2021-02-26_15h37.55.429,openIAT,2020.1.0rc3,MacIntel,60,a,1,0.51546,,,,,,,,0.51546,1,0,15,15,5,1,stimuli/white_3.jpg,NaN,a,,,,,,,,
,,,,,,,,,,,,,mml1,1,001,female,2021-02-26_15h37.55.429,openIAT,2020.1.0rc3,MacIntel,60,l,1,0.61049,,,,,,,,0.61049,1,0,16,16,4,1,stimuli/black_3.jpg,NaN,l,,,,,,,,
,,,,,,,,,,,,,mml1,1,001,female,2021-02-26_15h37.55.429,openIAT,2020.1.0rc3,MacIntel,60,a,1,0.574495,,,,,,,,0.574495,1,0,17,17,7,1,stimuli/white_4.jpg,NaN,a,,,,,,,,
,,,,,,,,,,,,,mml1,1,001,female,2021-02-26_15h37.55.429,openIAT,2020.1.0rc3,MacIntel,60,l,1,0.474625,,,,,,,,0.474625,1,0,18,18,2,1,stimuli/black_2.jpg,NaN,l,,,,,,,,
,,,,,,,,,,,,,mml1,1,001,female,2021-02-26_15h37.55.429,openIAT,2020.1.0rc3,MacIntel,60,a,1,0.65557,,,,,,,,0.65557,1,0,19,19,1,1,stimuli/white_1.jpg,NaN,a,,,,,,,,
,,,,,,,,,,,,,mml1,1,001,female,2021-02-26_15h37.55.429,openIAT,2020.1.0rc3,MacIntel,60,,,,,,,,,,,,,,,,,,,,,0,2,2,2,1,cong_test.xlsx,"A = 
White or 
Positive","L = 
Black or 
Negative"
,,,,,,,,,,,,,mml1,1,001,female,2021-02-26_15h37.55.429,openIAT,2020.1.0rc3,MacIntel,60,a,0,0.742725,,,,,,,,0.742725,0,0,0,0,7,1,stimuli/white_4.jpg,,l,,,,,,,,
,,,,,,,,,,,,,mml1,1,001,female,2021-02-26_15h37.55.429,openIAT,2020.1.0rc3,MacIntel,60,a,1,0.8606,,,,,,,,0.8606,1,0,1,1,4,1,stimuli/black_3.jpg,,a,,,,,,,,
,,,,,,,,,,,,,mml1,1,001,female,2021-02-26_15h37.55.429,openIAT,2020.1.0rc3,MacIntel,60,l,1,0.494285,,,,,,,,0.494285,1,0,2,2,1,1,stimuli/white_1.jpg,,l,,,,,,,,
,,,,,,,,,,,,,mml1,1,001,female,2021-02-26_15h37.55.429,openIAT,2020.1.0rc3,MacIntel,60,a,1,0.580135,,,,,,,,0.580135,1,0,3,3,2,1,stimuli/black_2.jpg,,a,,,,,,,,
,,,,,,,,,,,,,mml1,1,001,female,2021-02-26_15h37.55.429,openIAT,2020.1.0rc3,MacIntel,60,a,1,0.661815,,,,,,,,0.661815,1,0,4,4,8,1,stimuli/black_5.jpg,,a,,,,,,,,
,,,,,,,,,,,,,mml1,1,001,female,2021-02-26_15h37.55.429,openIAT,2020.1.0rc3,MacIntel,60,l,1,0.725195,,,,,,,,0.725195,1,0,5,5,3,1,stimuli/white_2.jpg,,l,,,,,,,,
,,,,,,,,,,,,,mml1,1,001,female,2021-02-26_15h37.55.429,openIAT,2020.1.0rc3,MacIntel,60,l,1,0.598955,,,,,,,,0.598955,1,0,6,6,9,1,stimuli/white_5.jpg,,l,,,,,,,,
,,,,,,,,,,,,,mml1,1,001,female,2021-02-26_15h37.55.429,openIAT,2020.1.0rc3,MacIntel,60,l,1,0.709255,,,,,,,,0.709255,1,0,7,7,5,1,stimuli/white_3.jpg,,l,,,,,,,,
,,,,,,,,,,,,,mml1,1,001,female,2021-02-26_15h37.55.429,openIAT,2020.1.0rc3,MacIntel,60,a,1,0.5313,,,,,,,,0.5313,1,0,8,8,0,1,stimuli/black_1.jpg,,a,,,,,,,,
,,,,,,,,,,,,,mml1,1,001,female,2021-02-26_15h37.55.429,openIAT,2020.1.0rc3,MacIntel,60,a,1,0.530005,,,,,,,,0.530005,1,0,9,9,6,1,stimuli/black_4.jpg,,a,,,,,,,,
,,,,,,,,,,,,,mml1,1,001,female,2021-02-26_15h37.55.429,openIAT,2020.1.0rc3,MacIntel,60,,,,,,,,,,,,,,,,,,,,,0,3,3,3,1,incong_train.xlsx,"A = 
Black","L = 
White"
,,,,,,,,,,,,,mml1,1,001,female,2021-02-26_15h37.55.429,openIAT,2020.1.0rc3,MacIntel,60,a,0,1.343835,,,,,,,,1.343835,0,0,0,0,15,1,stimuli/blank.png,Agony,l,,,,,,,,
,,,,,,,,,,,,,mml1,1,001,female,2021-02-26_15h37.55.429,openIAT,2020.1.0rc3,MacIntel,60,l,1,0.77452,,,,,,,,0.77452,1,0,1,1,7,1,stimuli/white_4.jpg,,l,,,,,,,,
,,,,,,,,,,,,,mml1,1,001,female,2021-02-26_15h37.55.429,openIAT,2020.1.0rc3,MacIntel,60,a,1,0.599205,,,,,,,,0.599205,1,0,2,2,4,1,stimuli/black_3.jpg,,a,,,,,,,,
,,,,,,,,,,,,,mml1,1,001,female,2021-02-26_15h37.55.429,openIAT,2020.1.0rc3,MacIntel,60,a,1,1.078485,,,,,,,,1.078485,1,0,3,3,0,1,stimuli/black_1.jpg,,a,,,,,,,,
,,,,,,,,,,,,,mml1,1,001,female,2021-02-26_15h37.55.429,openIAT,2020.1.0rc3,MacIntel,60,a,1,0.51697,,,,,,,,0.51697,1,0,4,4,6,1,stimuli/black_4.jpg,,a,,,,,,,,
,,,,,,,,,,,,,mml1,1,001,female,2021-02-26_15h37.55.429,openIAT,2020.1.0rc3,MacIntel,60,l,0,0.71234,,,,,,,,0.71234,0,0,5,5,12,1,stimuli/blank.png,Happy,a,,,,,,,,
,,,,,,,,,,,,,mml1,1,001,female,2021-02-26_15h37.55.429,openIAT,2020.1.0rc3,MacIntel,60,l,0,1.307165,,,,,,,,1.307165,0,0,6,6,16,1,stimuli/blank.png,Love,a,,,,,,,,
,,,,,,,,,,,,,mml1,1,001,female,2021-02-26_15h37.55.429,openIAT,2020.1.0rc3,MacIntel,60,a,0,0.730385,,,,,,,,0.730385,0,0,7,7,11,1,stimuli/blank.png,Bad,l,,,,,,,,
,,,,,,,,,,,,,mml1,1,001,female,2021-02-26_15h37.55.429,openIAT,2020.1.0rc3,MacIntel,60,a,1,1.182475,,,,,,,,1.182475,1,0,8,8,14,1,stimuli/blank.png,Pleasure,a,,,,,,,,
,,,,,,,,,,,,,mml1,1,001,female,2021-02-26_15h37.55.429,openIAT,2020.1.0rc3,MacIntel,60,l,1,0.755325,,,,,,,,0.755325,1,0,9,9,1,1,stimuli/white_1.jpg,,l,,,,,,,,
,,,,,,,,,,,,,mml1,1,001,female,2021-02-26_15h37.55.429,openIAT,2020.1.0rc3,MacIntel,60,a,1,0.613535,,,,,,,,0.613535,1,0,10,10,2,1,stimuli/black_2.jpg,,a,,,,,,,,
,,,,,,,,,,,,,mml1,1,001,female,2021-02-26_15h37.55.429,openIAT,2020.1.0rc3,MacIntel,60,l,1,0.777915,,,,,,,,0.777915,1,0,11,11,3,1,stimuli/white_2.jpg,,l,,,,,,,,
,,,,,,,,,,,,,mml1,1,001,female,2021-02-26_15h37.55.429,openIAT,2020.1.0rc3,MacIntel,60,a,0,0.927485,,,,,,,,0.927485,0,0,12,12,13,1,stimuli/blank.png,Hurt,l,,,,,,,,
,,,,,,,,,,,,,mml1,1,001,female,2021-02-26_15h37.55.429,openIAT,2020.1.0rc3,MacIntel,60,l,1,1.181245,,,,,,,,1.181245,1,0,13,13,17,1,stimuli/blank.png,Evil,l,,,,,,,,
,,,,,,,,,,,,,mml1,1,001,female,2021-02-26_15h37.55.429,openIAT,2020.1.0rc3,MacIntel,60,a,1,2.24047,,,,,,,,2.24047,1,0,14,14,10,1,stimuli/blank.png,Good,a,,,,,,,,
,,,,,,,,,,,,,mml1,1,001,female,2021-02-26_15h37.55.429,openIAT,2020.1.0rc3,MacIntel,60,a,1,1.097895,,,,,,,,1.097895,1,0,15,15,18,1,stimuli/blank.png,Joy,a,,,,,,,,
,,,,,,,,,,,,,mml1,1,001,female,2021-02-26_15h37.55.429,openIAT,2020.1.0rc3,MacIntel,60,l,1,0.729375,,,,,,,,0.729375,1,0,16,16,5,1,stimuli/white_3.jpg,,l,,,,,,,,
,,,,,,,,,,,,,mml1,1,001,female,2021-02-26_15h37.55.429,openIAT,2020.1.0rc3,MacIntel,60,a,1,0.63915,,,,,,,,0.63915,1,0,17,17,8,1,stimuli/black_5.jpg,,a,,,,,,,,
,,,,,,,,,,,,,mml1,1,001,female,2021-02-26_15h37.55.429,openIAT,2020.1.0rc3,MacIntel,60,a,0,0.71109,,,,,,,,0.71109,0,0,18,18,19,1,stimuli/blank.png,Nasty,l,,,,,,,,
,,,,,,,,,,,,,mml1,1,001,female,2021-02-26_15h37.55.429,openIAT,2020.1.0rc3,MacIntel,60,l,1,0.62994,,,,,,,,0.62994,1,0,19,19,9,1,stimuli/white_5.jpg,,l,,,,,,,,
