instr_done_touch.x,instr_done_touch.y,instr_done_touch.leftButton,instr_done_touch.midButton,instr_done_touch.rightButton,instr_done_touch.clicked_name,instruct_pages.thisRepN,instruct_pages.thisTrialN,instruct_pages.thisN,instruct_pages.thisIndex,instruct_pages.ran,pageN,instruct_text,participant,order,session,gender,date,expName,psychopyVersion,OS,frameRate,key_resp.keys,key_resp.corr,touch_resp.x,touch_resp.y,touch_resp.leftButton,touch_resp.midButton,touch_resp.rightButton,touch_resp.time,touch_resp.clicked_name,rt,corr,trials.thisRepN,trials.thisTrialN,trials.thisN,trials.thisIndex,trials.ran,stimImage,stimWord,CorrAns,blocks.thisRepN,blocks.thisTrialN,blocks.thisN,blocks.thisIndex,blocks.ran,conds_file,label_left,label_right
0.17,-0.371111111,1,0,0,instr_done_button,0,0,0,0,1,1,"You will be presented with words or images to classify into categories using either the 'A' or 'L' key. 
 
Try to go as fast as possible while making as few mistakes as possible. 
",ol,1,001,male,2021-02-18_06h55.22.528,openIAT,2020.1.0rc3,Win32,60,,,,,,,,,,,,,,,,,,,,,,,,,,,
-0.101717305,-0.375825627,1,0,0,instr_done_button,0,1,1,1,1,2,"Keep in mind: 
 
1) Labels at the top of the screen indicate which catogory goes with which key. 
 
2) Each word or image has a correct catogory classification 
 
3) Keep your index fingers on the A and L keys to enable a rapid response. 
 
4) The test gives no results if you go slow- please try to go as fast as possible 
",ol,1,001,male,2021-02-18_06h55.22.528,openIAT,2020.1.0rc3,Win32,60,,,,,,,,,,,,,,,,,,,,,,,,,,,
,,,,,,,,,,,,,ol,1,001,male,2021-02-18_06h55.22.528,openIAT,2020.1.0rc3,Win32,60,,0,0.29326288,-0.336195509,1,0,0,630.67504,button_right,630.67504,1,0,0,0,9,1,stimuli/blank.png,Nasty,l,,,,,,,,
,,,,,,,,,,,,,ol,1,001,male,2021-02-18_06h55.22.528,openIAT,2020.1.0rc3,Win32,60,,0,0.29326288,-0.336195509,1,0,0,1.380965,button_right,1.380965,1,0,1,1,5,1,stimuli/blank.png,Agony,l,,,,,,,,
,,,,,,,,,,,,,ol,1,001,male,2021-02-18_06h55.22.528,openIAT,2020.1.0rc3,Win32,60,,0,0.29326288,-0.336195509,1,0,0,0.82856,button_right,0.82856,1,0,2,2,1,1,stimuli/blank.png,Bad,l,,,,,,,,
,,,,,,,,,,,,,ol,1,001,male,2021-02-18_06h55.22.528,openIAT,2020.1.0rc3,Win32,60,,0,-0.394980185,-0.293923382,1,0,0,1.35937,button_left,1.35937,1,0,3,3,8,1,stimuli/blank.png,Joy,a,,,,,,,,
,,,,,,,,,,,,,ol,1,001,male,2021-02-18_06h55.22.528,openIAT,2020.1.0rc3,Win32,60,,0,-0.336856011,-0.280713342,1,0,0,0.86406,button_left,0.86406,1,0,4,4,4,1,stimuli/blank.png,Pleasure,a,,,,,,,,
,,,,,,,,,,,,,ol,1,001,male,2021-02-18_06h55.22.528,openIAT,2020.1.0rc3,Win32,60,,0,-0.428005284,-0.334874505,1,0,0,1414.84831,button_left,1414.84831,1,0,5,5,2,1,stimuli/blank.png,Happy,a,,,,,,,,
,,,,,,,,,,,,,ol,1,001,male,2021-02-18_06h55.22.528,openIAT,2020.1.0rc3,Win32,60,,0,0.437252312,-0.328269485,1,0,0,0.95405,button_right,0.95405,1,0,6,6,7,1,stimuli/blank.png,Evil,l,,,,,,,,
,,,,,,,,,,,,,ol,1,001,male,2021-02-18_06h55.22.528,openIAT,2020.1.0rc3,Win32,60,,0,-0.284015852,-0.350726552,1,0,0,1.39271,button_left,1.39271,1,0,7,7,6,1,stimuli/blank.png,Love,a,,,,,,,,
,,,,,,,,,,,,,ol,1,001,male,2021-02-18_06h55.22.528,openIAT,2020.1.0rc3,Win32,60,,0,-0.377807133,-0.313738441,1,0,0,0.905555,button_left,0.905555,1,0,8,8,0,1,stimuli/blank.png,Good,a,,,,,,,,
,,,,,,,,,,,,,ol,1,001,male,2021-02-18_06h55.22.528,openIAT,2020.1.0rc3,Win32,60,,0,0.414795244,-0.284676354,1,0,0,1.575855,button_right,1.575855,1,0,9,9,3,1,stimuli/blank.png,Hurt,l,,,,,,,,
,,,,,,,,,,,,,ol,1,001,male,2021-02-18_06h55.22.528,openIAT,2020.1.0rc3,Win32,60,,,,,,,,,,,,,,,,,,,,0,0,0,0,1,pos_neg_train.xlsx,"A = 
Positive","L = 
Negative"
,,,,,,,,,,,,,ol,1,001,male,2021-02-18_06h55.22.528,openIAT,2020.1.0rc3,Win32,60,,0,-0.564068692,-0.305812417,1,0,0,1.616865,button_left,1.616865,1,0,0,0,7,1,stimuli/white_4.jpg,NaN,a,,,,,,,,
,,,,,,,,,,,,,ol,1,001,male,2021-02-18_06h55.22.528,openIAT,2020.1.0rc3,Win32,60,,0,-0.558784676,-0.309775429,1,0,0,1.549335,button_left,1.549335,1,0,1,1,3,1,stimuli/white_2.jpg,NaN,a,,,,,,,,
,,,,,,,,,,,,,ol,1,001,male,2021-02-18_06h55.22.528,openIAT,2020.1.0rc3,Win32,60,,0,0.535006605,-0.315059445,1,0,0,2.27934,button_right,2.27934,1,0,2,2,0,1,stimuli/black_1.jpg,NaN,l,,,,,,,,
,,,,,,,,,,,,,ol,1,001,male,2021-02-18_06h55.22.528,openIAT,2020.1.0rc3,Win32,60,,0,0.50990753,-0.350726552,1,0,0,1.360245,button_right,1.360245,1,0,3,3,2,1,stimuli/black_2.jpg,NaN,l,,,,,,,,
,,,,,,,,,,,,,ol,1,001,male,2021-02-18_06h55.22.528,openIAT,2020.1.0rc3,Win32,60,,0,0.50990753,-0.350726552,1,0,0,1.14548,button_right,1.14548,1,0,4,4,4,1,stimuli/black_3.jpg,NaN,l,,,,,,,,
,,,,,,,,,,,,,ol,1,001,male,2021-02-18_06h55.22.528,openIAT,2020.1.0rc3,Win32,60,,0,0.50990753,-0.350726552,1,0,0,0.69907,button_right,0.69907,1,0,5,5,8,1,stimuli/black_5.jpg,NaN,l,,,,,,,,
,,,,,,,,,,,,,ol,1,001,male,2021-02-18_06h55.22.528,openIAT,2020.1.0rc3,Win32,60,,0,-0.424042272,-0.35336856,1,0,0,1.42914,button_left,1.42914,1,0,6,6,5,1,stimuli/white_3.jpg,NaN,a,,,,,,,,
,,,,,,,,,,,,,ol,1,001,male,2021-02-18_06h55.22.528,openIAT,2020.1.0rc3,Win32,60,,0,-0.603698811,-0.30317041,1,0,0,1.54906,button_left,1.54906,1,0,7,7,1,1,stimuli/white_1.jpg,NaN,a,,,,,,,,
,,,,,,,,,,,,,ol,1,001,male,2021-02-18_06h55.22.528,openIAT,2020.1.0rc3,Win32,60,,0,-0.455746367,-0.313738441,1,0,0,0.799765,button_left,0.799765,1,0,8,8,9,1,stimuli/white_5.jpg,NaN,a,,,,,,,,
,,,,,,,,,,,,,ol,1,001,male,2021-02-18_06h55.22.528,openIAT,2020.1.0rc3,Win32,60,,0,0.214002642,-0.304491413,1,0,0,1.23636,button_right,1.23636,1,0,9,9,6,1,stimuli/black_4.jpg,NaN,l,,,,,,,,
,,,,,,,,,,,,,ol,1,001,male,2021-02-18_06h55.22.528,openIAT,2020.1.0rc3,Win32,60,,,,,,,,,,,,,,,,,,,,0,1,1,1,1,cong_train.xlsx,"A = 
White","L = 
Black"
,,,,,,,,,,,,,ol,1,001,male,2021-02-18_06h55.22.528,openIAT,2020.1.0rc3,Win32,60,,0,-0.463672391,-0.362615588,1,0,0,2.780615,button_left,2.780615,1,0,0,0,16,1,stimuli/blank.png,Love,a,,,,,,,,
,,,,,,,,,,,,,ol,1,001,male,2021-02-18_06h55.22.528,openIAT,2020.1.0rc3,Win32,60,,0,-0.463672391,-0.361294584,1,0,0,4.04925,button_left,4.04925,1,0,1,1,10,1,stimuli/blank.png,Good,a,,,,,,,,
,,,,,,,,,,,,,ol,1,001,male,2021-02-18_06h55.22.528,openIAT,2020.1.0rc3,Win32,60,,0,0.270805812,-0.328269485,1,0,0,1.33928,button_right,1.33928,1,0,2,2,19,1,stimuli/blank.png,Nasty,l,,,,,,,,
,,,,,,,,,,,,,ol,1,001,male,2021-02-18_06h55.22.528,openIAT,2020.1.0rc3,Win32,60,,0,-0.501981506,-0.325627477,1,0,0,2.947735,button_left,2.947735,1,0,3,3,5,1,stimuli/white_3.jpg,NaN,a,,,,,,,,
,,,,,,,,,,,,,ol,1,001,male,2021-02-18_06h55.22.528,openIAT,2020.1.0rc3,Win32,60,,0,-0.381770145,-0.34015852,1,0,0,3.615195,button_left,3.615195,1,0,4,4,14,1,stimuli/blank.png,Pleasure,a,,,,,,,,
,,,,,,,,,,,,,ol,1,001,male,2021-02-18_06h55.22.528,openIAT,2020.1.0rc3,Win32,60,,0,-0.381770145,-0.34015852,1,0,0,0.727545,button_left,0.727545,1,0,5,5,1,1,stimuli/white_1.jpg,NaN,a,,,,,,,,
,,,,,,,,,,,,,ol,1,001,male,2021-02-18_06h55.22.528,openIAT,2020.1.0rc3,Win32,60,,0,-0.381770145,-0.34015852,1,0,0,0.565955,button_left,0.565955,1,0,6,6,7,1,stimuli/white_4.jpg,NaN,a,,,,,,,,
,,,,,,,,,,,,,ol,1,001,male,2021-02-18_06h55.22.528,openIAT,2020.1.0rc3,Win32,60,,0,0.385733157,-0.278071334,1,0,0,1.33244,button_right,1.33244,1,0,7,7,17,1,stimuli/blank.png,Evil,l,,,,,,,,
,,,,,,,,,,,,,ol,1,001,male,2021-02-18_06h55.22.528,openIAT,2020.1.0rc3,Win32,60,,0,-0.35006605,-0.357331572,1,0,0,3.944495,button_left,3.944495,1,0,8,8,3,1,stimuli/white_2.jpg,NaN,a,,,,,,,,
,,,,,,,,,,,,,ol,1,001,male,2021-02-18_06h55.22.528,openIAT,2020.1.0rc3,Win32,60,,0,0.428005284,-0.333553501,1,0,0,0.97466,button_right,0.97466,1,0,9,9,15,1,stimuli/blank.png,Agony,l,,,,,,,,
,,,,,,,,,,,,,ol,1,001,male,2021-02-18_06h55.22.528,openIAT,2020.1.0rc3,Win32,60,,0,0.429326288,-0.333553501,1,0,0,2.083395,button_right,2.083395,1,0,10,10,0,1,stimuli/black_1.jpg,NaN,l,,,,,,,,
,,,,,,,,,,,,,ol,1,001,male,2021-02-18_06h55.22.528,openIAT,2020.1.0rc3,Win32,60,,0,0.429326288,-0.333553501,1,0,0,0.736545,button_right,0.736545,1,0,11,11,8,1,stimuli/black_5.jpg,NaN,l,,,,,,,,
,,,,,,,,,,,,,ol,1,001,male,2021-02-18_06h55.22.528,openIAT,2020.1.0rc3,Win32,60,,0,-0.191545575,-0.29656539,1,0,0,1.43745,button_left,1.43745,1,0,12,12,18,1,stimuli/blank.png,Joy,a,,,,,,,,
,,,,,,,,,,,,,ol,1,001,male,2021-02-18_06h55.22.528,openIAT,2020.1.0rc3,Win32,60,,0,-0.385733157,-0.305812417,1,0,0,4.67369,button_left,4.67369,1,0,13,13,9,1,stimuli/white_5.jpg,NaN,a,,,,,,,,
,,,,,,,,,,,,,ol,1,001,male,2021-02-18_06h55.22.528,openIAT,2020.1.0rc3,Win32,60,,0,-0.357992074,-0.322985469,1,0,0,1.32778,button_left,1.32778,1,0,14,14,12,1,stimuli/blank.png,Happy,a,,,,,,,,
,,,,,,,,,,,,,ol,1,001,male,2021-02-18_06h55.22.528,openIAT,2020.1.0rc3,Win32,60,,0,0.309114927,-0.309775429,1,0,0,1.032375,button_right,1.032375,1,0,15,15,6,1,stimuli/black_4.jpg,NaN,l,,,,,,,,
,,,,,,,,,,,,,ol,1,001,male,2021-02-18_06h55.22.528,openIAT,2020.1.0rc3,Win32,60,,0,0.309114927,-0.309775429,1,0,0,0.717485,button_right,0.717485,1,0,16,16,2,1,stimuli/black_2.jpg,NaN,l,,,,,,,,
,,,,,,,,,,,,,ol,1,001,male,2021-02-18_06h55.22.528,openIAT,2020.1.0rc3,Win32,60,,0,0.309114927,-0.309775429,1,0,0,1.03129,button_right,1.03129,1,0,17,17,11,1,stimuli/blank.png,Bad,l,,,,,,,,
,,,,,,,,,,,,,ol,1,001,male,2021-02-18_06h55.22.528,openIAT,2020.1.0rc3,Win32,60,,0,0.309114927,-0.309775429,1,0,0,1.54593,button_right,1.54593,1,0,18,18,13,1,stimuli/blank.png,Hurt,l,,,,,,,,
,,,,,,,,,,,,,ol,1,001,male,2021-02-18_06h55.22.528,openIAT,2020.1.0rc3,Win32,60,,0,0.309114927,-0.309775429,1,0,0,0.61253,button_right,0.61253,1,0,19,19,4,1,stimuli/black_3.jpg,NaN,l,,,,,,,,
,,,,,,,,,,,,,ol,1,001,male,2021-02-18_06h55.22.528,openIAT,2020.1.0rc3,Win32,60,,,,,,,,,,,,,,,,,,,,0,2,2,2,1,cong_test.xlsx,"A = 
White or 
Positive","L = 
Black or 
Negative"
,,,,,,,,,,,,,ol,1,001,male,2021-02-18_06h55.22.528,openIAT,2020.1.0rc3,Win32,60,,0,0.244385733,-0.292602378,1,0,0,0.022885,button_right,0.022885,0,0,0,0,2,1,stimuli/black_2.jpg,,a,,,,,,,,
,,,,,,,,,,,,,ol,1,001,male,2021-02-18_06h55.22.528,openIAT,2020.1.0rc3,Win32,60,,0,0.491413474,-0.241083223,1,0,0,1.260535,button_right,1.260535,1,0,1,1,9,1,stimuli/white_5.jpg,,l,,,,,,,,
,,,,,,,,,,,,,ol,1,001,male,2021-02-18_06h55.22.528,openIAT,2020.1.0rc3,Win32,60,,0,-0.297225892,-0.264861295,1,0,0,1.46544,button_left,1.46544,1,0,2,2,0,1,stimuli/black_1.jpg,,a,,,,,,,,
,,,,,,,,,,,,,ol,1,001,male,2021-02-18_06h55.22.528,openIAT,2020.1.0rc3,Win32,60,,0,0.252311757,-0.326948481,1,0,0,1.12798,button_right,1.12798,1,0,3,3,5,1,stimuli/white_3.jpg,,l,,,,,,,,
,,,,,,,,,,,,,ol,1,001,male,2021-02-18_06h55.22.528,openIAT,2020.1.0rc3,Win32,60,,0,0.252311757,-0.326948481,1,0,0,1.35953,button_right,1.35953,1,0,4,4,7,1,stimuli/white_4.jpg,,l,,,,,,,,
,,,,,,,,,,,,,ol,1,001,male,2021-02-18_06h55.22.528,openIAT,2020.1.0rc3,Win32,60,,0,-0.310435931,-0.322985469,1,0,0,1.202385,button_left,1.202385,1,0,5,5,6,1,stimuli/black_4.jpg,,a,,,,,,,,
,,,,,,,,,,,,,ol,1,001,male,2021-02-18_06h55.22.528,openIAT,2020.1.0rc3,Win32,60,,0,0.397622193,-0.383751651,1,0,0,1.010495,button_right,1.010495,1,0,6,6,1,1,stimuli/white_1.jpg,,l,,,,,,,,
,,,,,,,,,,,,,ol,1,001,male,2021-02-18_06h55.22.528,openIAT,2020.1.0rc3,Win32,60,,0,0.332892999,-0.362615588,1,0,0,1.115865,button_right,1.115865,0,0,7,7,8,1,stimuli/black_5.jpg,,a,,,,,,,,
,,,,,,,,,,,,,ol,1,001,male,2021-02-18_06h55.22.528,openIAT,2020.1.0rc3,Win32,60,,0,-0.504623514,-0.29656539,1,0,0,0.915015,button_left,0.915015,1,0,8,8,4,1,stimuli/black_3.jpg,,a,,,,,,,,
,,,,,,,,,,,,,ol,1,001,male,2021-02-18_06h55.22.528,openIAT,2020.1.0rc3,Win32,60,,0,0.188903567,-0.349405548,1,0,0,1.10151,button_right,1.10151,1,0,9,9,3,1,stimuli/white_2.jpg,,l,,,,,,,,
,,,,,,,,,,,,,ol,1,001,male,2021-02-18_06h55.22.528,openIAT,2020.1.0rc3,Win32,60,,,,,,,,,,,,,,,,,,,,0,3,3,3,1,incong_train.xlsx,"A = 
Black","L = 
White"
,,,,,,,,,,,,,ol,1,001,male,2021-02-18_06h55.22.528,openIAT,2020.1.0rc3,Win32,60,,0,-0.384412153,-0.35336856,1,0,0,1.261755,button_left,1.261755,1,0,0,0,12,1,stimuli/blank.png,Happy,a,,,,,,,,
,,,,,,,,,,,,,ol,1,001,male,2021-02-18_06h55.22.528,openIAT,2020.1.0rc3,Win32,60,,0,0.322324967,-0.414134742,1,0,0,2.148105,button_right,2.148105,1,0,1,1,3,1,stimuli/white_2.jpg,,l,,,,,,,,
,,,,,,,,,,,,,ol,1,001,male,2021-02-18_06h55.22.528,openIAT,2020.1.0rc3,Win32,60,,0,-0.340819022,-0.333553501,1,0,0,3.062805,button_left,3.062805,1,0,2,2,8,1,stimuli/black_5.jpg,,a,,,,,,,,
,,,,,,,,,,,,,ol,1,001,male,2021-02-18_06h55.22.528,openIAT,2020.1.0rc3,Win32,60,,0,-0.243064729,-0.326948481,1,0,0,2.56312,button_left,2.56312,1,0,3,3,2,1,stimuli/black_2.jpg,,a,,,,,,,,
,,,,,,,,,,,,,ol,1,001,male,2021-02-18_06h55.22.528,openIAT,2020.1.0rc3,Win32,60,,0,0.429326288,-0.275429326,1,0,0,3.36898,button_right,3.36898,1,0,4,4,11,1,stimuli/blank.png,Bad,l,,,,,,,,
,,,,,,,,,,,,,ol,1,001,male,2021-02-18_06h55.22.528,openIAT,2020.1.0rc3,Win32,60,,0,-0.359313078,-0.295244386,1,0,0,4.013875,button_left,4.013875,1,0,5,5,0,1,stimuli/black_1.jpg,,a,,,,,,,,
,,,,,,,,,,,,,ol,1,001,male,2021-02-18_06h55.22.528,openIAT,2020.1.0rc3,Win32,60,,0,0.446499339,-0.316380449,1,0,0,2.9121,button_right,2.9121,1,0,6,6,15,1,stimuli/blank.png,Agony,l,,,,,,,,
,,,,,,,,,,,,,ol,1,001,male,2021-02-18_06h55.22.528,openIAT,2020.1.0rc3,Win32,60,,0,-0.51651255,-0.316380449,1,0,0,12.546685,button_left,12.546685,1,0,7,7,6,1,stimuli/black_4.jpg,,a,,,,,,,,
,,,,,,,,,,,,,ol,1,001,male,2021-02-18_06h55.22.528,openIAT,2020.1.0rc3,Win32,60,,0,-0.249669749,-0.341479524,1,0,0,3.44352,button_left,3.44352,1,0,8,8,10,1,stimuli/blank.png,Good,a,,,,,,,,
,,,,,,,,,,,,,ol,1,001,male,2021-02-18_06h55.22.528,openIAT,2020.1.0rc3,Win32,60,,0,0.532364597,-0.345442536,1,0,0,2.725275,button_right,2.725275,1,0,9,9,17,1,stimuli/blank.png,Evil,l,,,,,,,,
,,,,,,,,,,,,,ol,1,001,male,2021-02-18_06h55.22.528,openIAT,2020.1.0rc3,Win32,60,,0,-0.361955086,-0.247688243,1,0,0,1.533525,button_left,1.533525,1,0,10,10,4,1,stimuli/black_3.jpg,,a,,,,,,,,
,,,,,,,,,,,,,ol,1,001,male,2021-02-18_06h55.22.528,openIAT,2020.1.0rc3,Win32,60,,0,0.467635403,-0.311096433,1,0,0,5.128385,button_right,5.128385,1,0,11,11,1,1,stimuli/white_1.jpg,,l,,,,,,,,
,,,,,,,,,,,,,ol,1,001,male,2021-02-18_06h55.22.528,openIAT,2020.1.0rc3,Win32,60,,0,-0.276089828,-0.27014531,1,0,0,3.143815,button_left,3.143815,1,0,12,12,14,1,stimuli/blank.png,Pleasure,a,,,,,,,,
,,,,,,,,,,,,,ol,1,001,male,2021-02-18_06h55.22.528,openIAT,2020.1.0rc3,Win32,60,,0,-0.276089828,-0.27014531,1,0,0,1.014855,button_left,1.014855,1,0,13,13,16,1,stimuli/blank.png,Love,a,,,,,,,,
,,,,,,,,,,,,,ol,1,001,male,2021-02-18_06h55.22.528,openIAT,2020.1.0rc3,Win32,60,,0,0.492734478,-0.297886394,1,0,0,2.49177,button_right,2.49177,1,0,14,14,7,1,stimuli/white_4.jpg,,l,,,,,,,,
,,,,,,,,,,,,,ol,1,001,male,2021-02-18_06h55.22.528,openIAT,2020.1.0rc3,Win32,60,,0,0.347424042,-0.285997358,1,0,0,1.144065,button_right,1.144065,1,0,15,15,19,1,stimuli/blank.png,Nasty,l,,,,,,,,
,,,,,,,,,,,,,ol,1,001,male,2021-02-18_06h55.22.528,openIAT,2020.1.0rc3,Win32,60,,0,0.347424042,-0.285997358,1,0,0,1.03611,button_right,1.03611,1,0,16,16,13,1,stimuli/blank.png,Hurt,l,,,,,,,,
,,,,,,,,,,,,,ol,1,001,male,2021-02-18_06h55.22.528,openIAT,2020.1.0rc3,Win32,60,,0,0.310435931,-0.254293263,1,0,0,2.190105,button_right,2.190105,1,0,17,17,5,1,stimuli/white_3.jpg,,l,,,,,,,,
,,,,,,,,,,,,,ol,1,001,male,2021-02-18_06h55.22.528,openIAT,2020.1.0rc3,Win32,60,,0,0.310435931,-0.254293263,1,0,0,2.69551,button_right,2.69551,1,0,18,18,9,1,stimuli/white_5.jpg,,l,,,,,,,,
,,,,,,,,,,,,,ol,1,001,male,2021-02-18_06h55.22.528,openIAT,2020.1.0rc3,Win32,60,,0,-0.338177015,-0.315059445,1,0,0,10.70726,button_left,10.70726,1,0,19,19,18,1,stimuli/blank.png,Joy,a,,,,,,,,
