instr_done_touch.x,instr_done_touch.y,instr_done_touch.leftButton,instr_done_touch.midButton,instr_done_touch.rightButton,instr_done_touch.clicked_name,instruct_pages.thisRepN,instruct_pages.thisTrialN,instruct_pages.thisN,instruct_pages.thisIndex,instruct_pages.ran,pageN,instruct_text,participant,order,session,gender,date,expName,psychopyVersion,OS,frameRate,key_resp.keys,key_resp.corr,key_resp.rt,touch_resp.x,touch_resp.y,touch_resp.leftButton,touch_resp.midButton,touch_resp.rightButton,touch_resp.time,touch_resp.clicked_name,rt,corr,trials.thisRepN,trials.thisTrialN,trials.thisN,trials.thisIndex,trials.ran,stimImage,stimWord,CorrAns,blocks.thisRepN,blocks.thisTrialN,blocks.thisN,blocks.thisIndex,blocks.ran,conds_file,label_left,label_right
0.068518519,-0.383333333,1,0,0,instr_done_button,0,0,0,0,1,1,"You will be presented with words or images to classify into categories using either the 'A' or 'L' key. 
 
Try to go as fast as possible while making as few mistakes as possible. 
",Oli,2,001,male,2024-02-01_13h00.05.168,openIAT,2020.1.0rc3,Win32,60,,,,,,,,,,,,,,,,,,,,,,,,,,,,
0.068518519,-0.383333333,1,0,0,instr_done_button,0,1,1,1,1,2,"Keep in mind: 
 
1) Labels at the top of the screen indicate which catogory goes with which key. 
 
2) Each word or image has a correct catogory classification 
 
3) Keep your index fingers on the A and L keys to enable a rapid response. 
 
4) The test gives no results if you go slow- please try to go as fast as possible 
",Oli,2,001,male,2024-02-01_13h00.05.168,openIAT,2020.1.0rc3,Win32,60,,,,,,,,,,,,,,,,,,,,,,,,,,,,
,,,,,,,,,,,,,Oli,2,001,male,2024-02-01_13h00.05.168,openIAT,2020.1.0rc3,Win32,60,a,1,0.8781,,,,,,,,0.8781,1,0,0,0,4,1,stimuli/blank.png,Pleasure,a,,,,,,,,
,,,,,,,,,,,,,Oli,2,001,male,2024-02-01_13h00.05.168,openIAT,2020.1.0rc3,Win32,60,l,1,0.7979,,,,,,,,0.7979,1,0,1,1,9,1,stimuli/blank.png,Nasty,l,,,,,,,,
,,,,,,,,,,,,,Oli,2,001,male,2024-02-01_13h00.05.168,openIAT,2020.1.0rc3,Win32,60,l,1,0.6252,,,,,,,,0.6252,1,0,2,2,7,1,stimuli/blank.png,Evil,l,,,,,,,,
,,,,,,,,,,,,,Oli,2,001,male,2024-02-01_13h00.05.168,openIAT,2020.1.0rc3,Win32,60,a,1,0.6668,,,,,,,,0.6668,1,0,3,3,6,1,stimuli/blank.png,Love,a,,,,,,,,
,,,,,,,,,,,,,Oli,2,001,male,2024-02-01_13h00.05.168,openIAT,2020.1.0rc3,Win32,60,l,1,0.6668,,,,,,,,0.6668,1,0,4,4,3,1,stimuli/blank.png,Hurt,l,,,,,,,,
,,,,,,,,,,,,,Oli,2,001,male,2024-02-01_13h00.05.168,openIAT,2020.1.0rc3,Win32,60,a,1,0.5849,,,,,,,,0.5849,1,0,5,5,2,1,stimuli/blank.png,Happy,a,,,,,,,,
,,,,,,,,,,,,,Oli,2,001,male,2024-02-01_13h00.05.168,openIAT,2020.1.0rc3,Win32,60,l,1,0.5395,,,,,,,,0.5395,1,0,6,6,1,1,stimuli/blank.png,Bad,l,,,,,,,,
,,,,,,,,,,,,,Oli,2,001,male,2024-02-01_13h00.05.168,openIAT,2020.1.0rc3,Win32,60,l,1,0.6555,,,,,,,,0.6555,1,0,7,7,5,1,stimuli/blank.png,Agony,l,,,,,,,,
,,,,,,,,,,,,,Oli,2,001,male,2024-02-01_13h00.05.168,openIAT,2020.1.0rc3,Win32,60,a,1,0.6502,,,,,,,,0.6502,1,0,8,8,0,1,stimuli/blank.png,Good,a,,,,,,,,
,,,,,,,,,,,,,Oli,2,001,male,2024-02-01_13h00.05.168,openIAT,2020.1.0rc3,Win32,60,a,1,0.5926,,,,,,,,0.5926,1,0,9,9,8,1,stimuli/blank.png,Joy,a,,,,,,,,
,,,,,,,,,,,,,Oli,2,001,male,2024-02-01_13h00.05.168,openIAT,2020.1.0rc3,Win32,60,,,,,,,,,,,,,,,,,,,,,0,0,0,0,1,pos_neg_train.xlsx,"A = 
Positive","L = 
Negative"
,,,,,,,,,,,,,Oli,2,001,male,2024-02-01_13h00.05.168,openIAT,2020.1.0rc3,Win32,60,l,1,1.8569,,,,,,,,1.8569,1,0,0,0,9,1,stimuli/white_5.jpg,,l,,,,,,,,
,,,,,,,,,,,,,Oli,2,001,male,2024-02-01_13h00.05.168,openIAT,2020.1.0rc3,Win32,60,l,1,1.4885,,,,,,,,1.4885,1,0,1,1,3,1,stimuli/white_2.jpg,,l,,,,,,,,
,,,,,,,,,,,,,Oli,2,001,male,2024-02-01_13h00.05.168,openIAT,2020.1.0rc3,Win32,60,a,1,1.247,,,,,,,,1.247,1,0,2,2,8,1,stimuli/black_5.jpg,,a,,,,,,,,
,,,,,,,,,,,,,Oli,2,001,male,2024-02-01_13h00.05.168,openIAT,2020.1.0rc3,Win32,60,a,1,0.7502,,,,,,,,0.7502,1,0,3,3,6,1,stimuli/black_4.jpg,,a,,,,,,,,
,,,,,,,,,,,,,Oli,2,001,male,2024-02-01_13h00.05.168,openIAT,2020.1.0rc3,Win32,60,l,1,0.6456,,,,,,,,0.6456,1,0,4,4,7,1,stimuli/white_4.jpg,,l,,,,,,,,
,,,,,,,,,,,,,Oli,2,001,male,2024-02-01_13h00.05.168,openIAT,2020.1.0rc3,Win32,60,l,1,0.6538,,,,,,,,0.6538,1,0,5,5,5,1,stimuli/white_3.jpg,,l,,,,,,,,
,,,,,,,,,,,,,Oli,2,001,male,2024-02-01_13h00.05.168,openIAT,2020.1.0rc3,Win32,60,a,1,0.7579,,,,,,,,0.7579,1,0,6,6,2,1,stimuli/black_2.jpg,,a,,,,,,,,
,,,,,,,,,,,,,Oli,2,001,male,2024-02-01_13h00.05.168,openIAT,2020.1.0rc3,Win32,60,a,1,0.6835,,,,,,,,0.6835,1,0,7,7,4,1,stimuli/black_3.jpg,,a,,,,,,,,
,,,,,,,,,,,,,Oli,2,001,male,2024-02-01_13h00.05.168,openIAT,2020.1.0rc3,Win32,60,l,1,0.6811,,,,,,,,0.6811,1,0,8,8,1,1,stimuli/white_1.jpg,,l,,,,,,,,
,,,,,,,,,,,,,Oli,2,001,male,2024-02-01_13h00.05.168,openIAT,2020.1.0rc3,Win32,60,a,1,0.7044,,,,,,,,0.7044,1,0,9,9,0,1,stimuli/black_1.jpg,,a,,,,,,,,
,,,,,,,,,,,,,Oli,2,001,male,2024-02-01_13h00.05.168,openIAT,2020.1.0rc3,Win32,60,,,,,,,,,,,,,,,,,,,,,0,1,1,1,1,incong_train.xlsx,"A = 
Black","L = 
White"
,,,,,,,,,,,,,Oli,2,001,male,2024-02-01_13h00.05.168,openIAT,2020.1.0rc3,Win32,60,a,1,0.8192,,,,,,,,0.8192,1,0,0,0,2,1,stimuli/black_2.jpg,,a,,,,,,,,
,,,,,,,,,,,,,Oli,2,001,male,2024-02-01_13h00.05.168,openIAT,2020.1.0rc3,Win32,60,l,1,1.0442,,,,,,,,1.0442,1,0,1,1,15,1,stimuli/blank.png,Agony,l,,,,,,,,
,,,,,,,,,,,,,Oli,2,001,male,2024-02-01_13h00.05.168,openIAT,2020.1.0rc3,Win32,60,l,1,0.9335,,,,,,,,0.9335,1,0,2,2,5,1,stimuli/white_3.jpg,,l,,,,,,,,
,,,,,,,,,,,,,Oli,2,001,male,2024-02-01_13h00.05.168,openIAT,2020.1.0rc3,Win32,60,a,1,0.7375,,,,,,,,0.7375,1,0,3,3,18,1,stimuli/blank.png,Joy,a,,,,,,,,
,,,,,,,,,,,,,Oli,2,001,male,2024-02-01_13h00.05.168,openIAT,2020.1.0rc3,Win32,60,a,1,0.6145,,,,,,,,0.6145,1,0,4,4,4,1,stimuli/black_3.jpg,,a,,,,,,,,
,,,,,,,,,,,,,Oli,2,001,male,2024-02-01_13h00.05.168,openIAT,2020.1.0rc3,Win32,60,a,1,0.9372,,,,,,,,0.9372,1,0,5,5,0,1,stimuli/black_1.jpg,,a,,,,,,,,
,,,,,,,,,,,,,Oli,2,001,male,2024-02-01_13h00.05.168,openIAT,2020.1.0rc3,Win32,60,l,1,0.7014,,,,,,,,0.7014,1,0,6,6,3,1,stimuli/white_2.jpg,,l,,,,,,,,
,,,,,,,,,,,,,Oli,2,001,male,2024-02-01_13h00.05.168,openIAT,2020.1.0rc3,Win32,60,l,1,0.5638,,,,,,,,0.5638,1,0,7,7,19,1,stimuli/blank.png,Nasty,l,,,,,,,,
,,,,,,,,,,,,,Oli,2,001,male,2024-02-01_13h00.05.168,openIAT,2020.1.0rc3,Win32,60,a,1,0.8333,,,,,,,,0.8333,1,0,8,8,14,1,stimuli/blank.png,Pleasure,a,,,,,,,,
,,,,,,,,,,,,,Oli,2,001,male,2024-02-01_13h00.05.168,openIAT,2020.1.0rc3,Win32,60,l,1,0.736,,,,,,,,0.736,1,0,9,9,17,1,stimuli/blank.png,Evil,l,,,,,,,,
,,,,,,,,,,,,,Oli,2,001,male,2024-02-01_13h00.05.168,openIAT,2020.1.0rc3,Win32,60,a,1,0.7341,,,,,,,,0.7341,1,0,10,10,16,1,stimuli/blank.png,Love,a,,,,,,,,
,,,,,,,,,,,,,Oli,2,001,male,2024-02-01_13h00.05.168,openIAT,2020.1.0rc3,Win32,60,l,1,0.8904,,,,,,,,0.8904,1,0,11,11,9,1,stimuli/white_5.jpg,,l,,,,,,,,
,,,,,,,,,,,,,Oli,2,001,male,2024-02-01_13h00.05.168,openIAT,2020.1.0rc3,Win32,60,l,1,0.7128,,,,,,,,0.7128,1,0,12,12,1,1,stimuli/white_1.jpg,,l,,,,,,,,
,,,,,,,,,,,,,Oli,2,001,male,2024-02-01_13h00.05.168,openIAT,2020.1.0rc3,Win32,60,l,0,0.8332,,,,,,,,0.8332,0,0,13,13,12,1,stimuli/blank.png,Happy,a,,,,,,,,
,,,,,,,,,,,,,Oli,2,001,male,2024-02-01_13h00.05.168,openIAT,2020.1.0rc3,Win32,60,l,1,1.0718,,,,,,,,1.0718,1,0,14,14,13,1,stimuli/blank.png,Hurt,l,,,,,,,,
,,,,,,,,,,,,,Oli,2,001,male,2024-02-01_13h00.05.168,openIAT,2020.1.0rc3,Win32,60,a,0,0.9605,,,,,,,,0.9605,0,0,15,15,11,1,stimuli/blank.png,Bad,l,,,,,,,,
,,,,,,,,,,,,,Oli,2,001,male,2024-02-01_13h00.05.168,openIAT,2020.1.0rc3,Win32,60,l,1,0.7953,,,,,,,,0.7953,1,0,16,16,7,1,stimuli/white_4.jpg,,l,,,,,,,,
,,,,,,,,,,,,,Oli,2,001,male,2024-02-01_13h00.05.168,openIAT,2020.1.0rc3,Win32,60,a,1,0.6945,,,,,,,,0.6945,1,0,17,17,8,1,stimuli/black_5.jpg,,a,,,,,,,,
,,,,,,,,,,,,,Oli,2,001,male,2024-02-01_13h00.05.168,openIAT,2020.1.0rc3,Win32,60,a,1,0.7167,,,,,,,,0.7167,1,0,18,18,6,1,stimuli/black_4.jpg,,a,,,,,,,,
,,,,,,,,,,,,,Oli,2,001,male,2024-02-01_13h00.05.168,openIAT,2020.1.0rc3,Win32,60,a,1,0.9549,,,,,,,,0.9549,1,0,19,19,10,1,stimuli/blank.png,Good,a,,,,,,,,
,,,,,,,,,,,,,Oli,2,001,male,2024-02-01_13h00.05.168,openIAT,2020.1.0rc3,Win32,60,,,,,,,,,,,,,,,,,,,,,0,2,2,2,1,incong_test.xlsx,"A = 
Black or 
Positive","L = 
White or 
Negative"
,,,,,,,,,,,,,Oli,2,001,male,2024-02-01_13h00.05.168,openIAT,2020.1.0rc3,Win32,60,a,1,0.7833,,,,,,,,0.7833,1,0,0,0,1,1,stimuli/white_1.jpg,NaN,a,,,,,,,,
,,,,,,,,,,,,,Oli,2,001,male,2024-02-01_13h00.05.168,openIAT,2020.1.0rc3,Win32,60,a,1,0.9062,,,,,,,,0.9062,1,0,1,1,9,1,stimuli/white_5.jpg,NaN,a,,,,,,,,
,,,,,,,,,,,,,Oli,2,001,male,2024-02-01_13h00.05.168,openIAT,2020.1.0rc3,Win32,60,a,0,0.6002,,,,,,,,0.6002,0,0,2,2,4,1,stimuli/black_3.jpg,NaN,l,,,,,,,,
,,,,,,,,,,,,,Oli,2,001,male,2024-02-01_13h00.05.168,openIAT,2020.1.0rc3,Win32,60,a,1,0.8499,,,,,,,,0.8499,1,0,3,3,3,1,stimuli/white_2.jpg,NaN,a,,,,,,,,
,,,,,,,,,,,,,Oli,2,001,male,2024-02-01_13h00.05.168,openIAT,2020.1.0rc3,Win32,60,l,1,0.5667,,,,,,,,0.5667,1,0,4,4,0,1,stimuli/black_1.jpg,NaN,l,,,,,,,,
,,,,,,,,,,,,,Oli,2,001,male,2024-02-01_13h00.05.168,openIAT,2020.1.0rc3,Win32,60,a,1,0.7353,,,,,,,,0.7353,1,0,5,5,7,1,stimuli/white_4.jpg,NaN,a,,,,,,,,
,,,,,,,,,,,,,Oli,2,001,male,2024-02-01_13h00.05.168,openIAT,2020.1.0rc3,Win32,60,l,1,0.5561,,,,,,,,0.5561,1,0,6,6,8,1,stimuli/black_5.jpg,NaN,l,,,,,,,,
,,,,,,,,,,,,,Oli,2,001,male,2024-02-01_13h00.05.168,openIAT,2020.1.0rc3,Win32,60,l,1,0.5916,,,,,,,,0.5916,1,0,7,7,2,1,stimuli/black_2.jpg,NaN,l,,,,,,,,
,,,,,,,,,,,,,Oli,2,001,male,2024-02-01_13h00.05.168,openIAT,2020.1.0rc3,Win32,60,l,1,0.5165,,,,,,,,0.5165,1,0,8,8,6,1,stimuli/black_4.jpg,NaN,l,,,,,,,,
,,,,,,,,,,,,,Oli,2,001,male,2024-02-01_13h00.05.168,openIAT,2020.1.0rc3,Win32,60,a,1,0.5831,,,,,,,,0.5831,1,0,9,9,5,1,stimuli/white_3.jpg,NaN,a,,,,,,,,
,,,,,,,,,,,,,Oli,2,001,male,2024-02-01_13h00.05.168,openIAT,2020.1.0rc3,Win32,60,,,,,,,,,,,,,,,,,,,,,0,3,3,3,1,cong_train.xlsx,"A = 
White","L = 
Black"
,,,,,,,,,,,,,Oli,2,001,male,2024-02-01_13h00.05.168,openIAT,2020.1.0rc3,Win32,60,a,1,0.7574,,,,,,,,0.7574,1,0,0,0,9,1,stimuli/white_5.jpg,NaN,a,,,,,,,,
,,,,,,,,,,,,,Oli,2,001,male,2024-02-01_13h00.05.168,openIAT,2020.1.0rc3,Win32,60,a,1,0.5858,,,,,,,,0.5858,1,0,1,1,10,1,stimuli/blank.png,Good,a,,,,,,,,
,,,,,,,,,,,,,Oli,2,001,male,2024-02-01_13h00.05.168,openIAT,2020.1.0rc3,Win32,60,a,1,0.5953,,,,,,,,0.5953,1,0,2,2,16,1,stimuli/blank.png,Love,a,,,,,,,,
,,,,,,,,,,,,,Oli,2,001,male,2024-02-01_13h00.05.168,openIAT,2020.1.0rc3,Win32,60,l,1,0.5597,,,,,,,,0.5597,1,0,3,3,4,1,stimuli/black_3.jpg,NaN,l,,,,,,,,
,,,,,,,,,,,,,Oli,2,001,male,2024-02-01_13h00.05.168,openIAT,2020.1.0rc3,Win32,60,l,1,0.6751,,,,,,,,0.6751,1,0,4,4,19,1,stimuli/blank.png,Nasty,l,,,,,,,,
,,,,,,,,,,,,,Oli,2,001,male,2024-02-01_13h00.05.168,openIAT,2020.1.0rc3,Win32,60,l,1,0.9066,,,,,,,,0.9066,1,0,5,5,6,1,stimuli/black_4.jpg,NaN,l,,,,,,,,
,,,,,,,,,,,,,Oli,2,001,male,2024-02-01_13h00.05.168,openIAT,2020.1.0rc3,Win32,60,a,1,0.6409,,,,,,,,0.6409,1,0,6,6,5,1,stimuli/white_3.jpg,NaN,a,,,,,,,,
,,,,,,,,,,,,,Oli,2,001,male,2024-02-01_13h00.05.168,openIAT,2020.1.0rc3,Win32,60,a,1,0.6996,,,,,,,,0.6996,1,0,7,7,3,1,stimuli/white_2.jpg,NaN,a,,,,,,,,
,,,,,,,,,,,,,Oli,2,001,male,2024-02-01_13h00.05.168,openIAT,2020.1.0rc3,Win32,60,a,1,0.6664,,,,,,,,0.6664,1,0,8,8,1,1,stimuli/white_1.jpg,NaN,a,,,,,,,,
,,,,,,,,,,,,,Oli,2,001,male,2024-02-01_13h00.05.168,openIAT,2020.1.0rc3,Win32,60,l,1,0.5842,,,,,,,,0.5842,1,0,9,9,2,1,stimuli/black_2.jpg,NaN,l,,,,,,,,
,,,,,,,,,,,,,Oli,2,001,male,2024-02-01_13h00.05.168,openIAT,2020.1.0rc3,Win32,60,a,1,0.6347,,,,,,,,0.6347,1,0,10,10,7,1,stimuli/white_4.jpg,NaN,a,,,,,,,,
,,,,,,,,,,,,,Oli,2,001,male,2024-02-01_13h00.05.168,openIAT,2020.1.0rc3,Win32,60,l,1,0.5715,,,,,,,,0.5715,1,0,11,11,13,1,stimuli/blank.png,Hurt,l,,,,,,,,
,,,,,,,,,,,,,Oli,2,001,male,2024-02-01_13h00.05.168,openIAT,2020.1.0rc3,Win32,60,l,1,0.6,,,,,,,,0.6,1,0,12,12,8,1,stimuli/black_5.jpg,NaN,l,,,,,,,,
,,,,,,,,,,,,,Oli,2,001,male,2024-02-01_13h00.05.168,openIAT,2020.1.0rc3,Win32,60,a,1,0.634,,,,,,,,0.634,1,0,13,13,18,1,stimuli/blank.png,Joy,a,,,,,,,,
,,,,,,,,,,,,,Oli,2,001,male,2024-02-01_13h00.05.168,openIAT,2020.1.0rc3,Win32,60,l,1,0.5776,,,,,,,,0.5776,1,0,14,14,11,1,stimuli/blank.png,Bad,l,,,,,,,,
,,,,,,,,,,,,,Oli,2,001,male,2024-02-01_13h00.05.168,openIAT,2020.1.0rc3,Win32,60,l,1,0.6528,,,,,,,,0.6528,1,0,15,15,17,1,stimuli/blank.png,Evil,l,,,,,,,,
,,,,,,,,,,,,,Oli,2,001,male,2024-02-01_13h00.05.168,openIAT,2020.1.0rc3,Win32,60,a,1,0.6296,,,,,,,,0.6296,1,0,16,16,12,1,stimuli/blank.png,Happy,a,,,,,,,,
,,,,,,,,,,,,,Oli,2,001,male,2024-02-01_13h00.05.168,openIAT,2020.1.0rc3,Win32,60,l,1,0.6064,,,,,,,,0.6064,1,0,17,17,0,1,stimuli/black_1.jpg,NaN,l,,,,,,,,
,,,,,,,,,,,,,Oli,2,001,male,2024-02-01_13h00.05.168,openIAT,2020.1.0rc3,Win32,60,l,1,0.7775,,,,,,,,0.7775,1,0,18,18,15,1,stimuli/blank.png,Agony,l,,,,,,,,
,,,,,,,,,,,,,Oli,2,001,male,2024-02-01_13h00.05.168,openIAT,2020.1.0rc3,Win32,60,a,1,0.733,,,,,,,,0.733,1,0,19,19,14,1,stimuli/blank.png,Pleasure,a,,,,,,,,
