instr_done_touch.x,instr_done_touch.y,instr_done_touch.leftButton,instr_done_touch.midButton,instr_done_touch.rightButton,instr_done_touch.clicked_name,instruct_pages.thisRepN,instruct_pages.thisTrialN,instruct_pages.thisN,instruct_pages.thisIndex,instruct_pages.ran,pageN,instruct_text,participant,order,session,gender,date,expName,psychopyVersion,OS,frameRate,key_resp.keys,key_resp.corr,key_resp.rt,touch_resp.x,touch_resp.y,touch_resp.leftButton,touch_resp.midButton,touch_resp.rightButton,touch_resp.time,touch_resp.clicked_name,rt,corr,trials.thisRepN,trials.thisTrialN,trials.thisN,trials.thisIndex,trials.ran,stimImage,stimWord,CorrAns,blocks.thisRepN,blocks.thisTrialN,blocks.thisN,blocks.thisIndex,blocks.ran,conds_file,label_left,label_right
0.034259302,-0.367592635,1,0,0,instr_done_button,0,0,0,0,1,1,"You will be presented with words or images to classify into categories using either the 'A' or 'L' key. 
 
Try to go as fast as possible while making as few mistakes as possible. 
",ㄴㅁㅇㅁㄴ,2,001,male,2023-10-02_15h20.54.770,openIAT,2020.1.0rc3,Win32,60,,,,,,,,,,,,,,,,,,,,,,,,,,,,
0.034259302,-0.367592635,1,0,0,instr_done_button,0,1,1,1,1,2,"Keep in mind: 
 
1) Labels at the top of the screen indicate which catogory goes with which key. 
 
2) Each word or image has a correct catogory classification 
 
3) Keep your index fingers on the A and L keys to enable a rapid response. 
 
4) The test gives no results if you go slow- please try to go as fast as possible 
",ㄴㅁㅇㅁㄴ,2,001,male,2023-10-02_15h20.54.770,openIAT,2020.1.0rc3,Win32,60,,,,,,,,,,,,,,,,,,,,,,,,,,,,
,,,,,,,,,,,,,ㄴㅁㅇㅁㄴ,2,001,male,2023-10-02_15h20.54.770,openIAT,2020.1.0rc3,Win32,60,a,0,0.4536,,,,,,,,0.4536,0,0,0,0,1,1,stimuli/blank.png,Bad,l,,,,,,,,
,,,,,,,,,,,,,ㄴㅁㅇㅁㄴ,2,001,male,2023-10-02_15h20.54.770,openIAT,2020.1.0rc3,Win32,60,a,1,1.7006,,,,,,,,1.7006,1,0,1,1,2,1,stimuli/blank.png,Happy,a,,,,,,,,
,,,,,,,,,,,,,ㄴㅁㅇㅁㄴ,2,001,male,2023-10-02_15h20.54.770,openIAT,2020.1.0rc3,Win32,60,l,1,1.327,,,,,,,,1.327,1,0,2,2,5,1,stimuli/blank.png,Agony,l,,,,,,,,
,,,,,,,,,,,,,ㄴㅁㅇㅁㄴ,2,001,male,2023-10-02_15h20.54.770,openIAT,2020.1.0rc3,Win32,60,a,0,0.0322,,,,,,,,0.0322,0,0,3,3,3,1,stimuli/blank.png,Hurt,l,,,,,,,,
,,,,,,,,,,,,,ㄴㅁㅇㅁㄴ,2,001,male,2023-10-02_15h20.54.770,openIAT,2020.1.0rc3,Win32,60,l,1,1.288,,,,,,,,1.288,1,0,4,4,9,1,stimuli/blank.png,Nasty,l,,,,,,,,
,,,,,,,,,,,,,ㄴㅁㅇㅁㄴ,2,001,male,2023-10-02_15h20.54.770,openIAT,2020.1.0rc3,Win32,60,a,1,1.008,,,,,,,,1.008,1,0,5,5,0,1,stimuli/blank.png,Good,a,,,,,,,,
,,,,,,,,,,,,,ㄴㅁㅇㅁㄴ,2,001,male,2023-10-02_15h20.54.770,openIAT,2020.1.0rc3,Win32,60,l,0,0.7907,,,,,,,,0.7907,0,0,6,6,4,1,stimuli/blank.png,Pleasure,a,,,,,,,,
,,,,,,,,,,,,,ㄴㅁㅇㅁㄴ,2,001,male,2023-10-02_15h20.54.770,openIAT,2020.1.0rc3,Win32,60,a,1,2.0005,,,,,,,,2.0005,1,0,7,7,8,1,stimuli/blank.png,Joy,a,,,,,,,,
,,,,,,,,,,,,,ㄴㅁㅇㅁㄴ,2,001,male,2023-10-02_15h20.54.770,openIAT,2020.1.0rc3,Win32,60,l,1,2.443,,,,,,,,2.443,1,0,8,8,7,1,stimuli/blank.png,Evil,l,,,,,,,,
,,,,,,,,,,,,,ㄴㅁㅇㅁㄴ,2,001,male,2023-10-02_15h20.54.770,openIAT,2020.1.0rc3,Win32,60,l,0,1.4346,,,,,,,,1.4346,0,0,9,9,6,1,stimuli/blank.png,Love,a,,,,,,,,
,,,,,,,,,,,,,ㄴㅁㅇㅁㄴ,2,001,male,2023-10-02_15h20.54.770,openIAT,2020.1.0rc3,Win32,60,,,,,,,,,,,,,,,,,,,,,0,0,0,0,1,pos_neg_train.xlsx,"A = 
Positive","L = 
Negative"
,,,,,,,,,,,,,ㄴㅁㅇㅁㄴ,2,001,male,2023-10-02_15h20.54.770,openIAT,2020.1.0rc3,Win32,60,a,1,0.1687,,,,,,,,0.1687,1,0,0,0,4,1,stimuli/black_3.jpg,,a,,,,,,,,
,,,,,,,,,,,,,ㄴㅁㅇㅁㄴ,2,001,male,2023-10-02_15h20.54.770,openIAT,2020.1.0rc3,Win32,60,a,1,1.8007,,,,,,,,1.8007,1,0,1,1,8,1,stimuli/black_5.jpg,,a,,,,,,,,
,,,,,,,,,,,,,ㄴㅁㅇㅁㄴ,2,001,male,2023-10-02_15h20.54.770,openIAT,2020.1.0rc3,Win32,60,a,0,1.5374,,,,,,,,1.5374,0,0,2,2,7,1,stimuli/white_4.jpg,,l,,,,,,,,
,,,,,,,,,,,,,ㄴㅁㅇㅁㄴ,2,001,male,2023-10-02_15h20.54.770,openIAT,2020.1.0rc3,Win32,60,a,1,1.1007,,,,,,,,1.1007,1,0,3,3,6,1,stimuli/black_4.jpg,,a,,,,,,,,
,,,,,,,,,,,,,ㄴㅁㅇㅁㄴ,2,001,male,2023-10-02_15h20.54.770,openIAT,2020.1.0rc3,Win32,60,a,1,0.5862,,,,,,,,0.5862,1,0,4,4,2,1,stimuli/black_2.jpg,,a,,,,,,,,
,,,,,,,,,,,,,ㄴㅁㅇㅁㄴ,2,001,male,2023-10-02_15h20.54.770,openIAT,2020.1.0rc3,Win32,60,l,1,0.6363,,,,,,,,0.6363,1,0,5,5,1,1,stimuli/white_1.jpg,,l,,,,,,,,
,,,,,,,,,,,,,ㄴㅁㅇㅁㄴ,2,001,male,2023-10-02_15h20.54.770,openIAT,2020.1.0rc3,Win32,60,l,1,1.2401,,,,,,,,1.2401,1,0,6,6,3,1,stimuli/white_2.jpg,,l,,,,,,,,
,,,,,,,,,,,,,ㄴㅁㅇㅁㄴ,2,001,male,2023-10-02_15h20.54.770,openIAT,2020.1.0rc3,Win32,60,l,1,1.0774,,,,,,,,1.0774,1,0,7,7,5,1,stimuli/white_3.jpg,,l,,,,,,,,
,,,,,,,,,,,,,ㄴㅁㅇㅁㄴ,2,001,male,2023-10-02_15h20.54.770,openIAT,2020.1.0rc3,Win32,60,l,0,1.1035,,,,,,,,1.1035,0,0,8,8,0,1,stimuli/black_1.jpg,,a,,,,,,,,
,,,,,,,,,,,,,ㄴㅁㅇㅁㄴ,2,001,male,2023-10-02_15h20.54.770,openIAT,2020.1.0rc3,Win32,60,l,1,1.9047,,,,,,,,1.9047,1,0,9,9,9,1,stimuli/white_5.jpg,,l,,,,,,,,
,,,,,,,,,,,,,ㄴㅁㅇㅁㄴ,2,001,male,2023-10-02_15h20.54.770,openIAT,2020.1.0rc3,Win32,60,,,,,,,,,,,,,,,,,,,,,0,1,1,1,1,incong_train.xlsx,"A = 
Black","L = 
White"
,,,,,,,,,,,,,ㄴㅁㅇㅁㄴ,2,001,male,2023-10-02_15h20.54.770,openIAT,2020.1.0rc3,Win32,60,a,1,2.9512,,,,,,,,2.9512,1,0,0,0,12,1,stimuli/blank.png,Happy,a,,,,,,,,
,,,,,,,,,,,,,ㄴㅁㅇㅁㄴ,2,001,male,2023-10-02_15h20.54.770,openIAT,2020.1.0rc3,Win32,60,l,1,0.6895,,,,,,,,0.6895,1,0,1,1,11,1,stimuli/blank.png,Bad,l,,,,,,,,
,,,,,,,,,,,,,ㄴㅁㅇㅁㄴ,2,001,male,2023-10-02_15h20.54.770,openIAT,2020.1.0rc3,Win32,60,l,1,1.1199,,,,,,,,1.1199,1,0,2,2,3,1,stimuli/white_2.jpg,,l,,,,,,,,
,,,,,,,,,,,,,ㄴㅁㅇㅁㄴ,2,001,male,2023-10-02_15h20.54.770,openIAT,2020.1.0rc3,Win32,60,a,1,0.5693,,,,,,,,0.5693,1,0,3,3,6,1,stimuli/black_4.jpg,,a,,,,,,,,
,,,,,,,,,,,,,ㄴㅁㅇㅁㄴ,2,001,male,2023-10-02_15h20.54.770,openIAT,2020.1.0rc3,Win32,60,a,1,1.0031,,,,,,,,1.0031,1,0,4,4,2,1,stimuli/black_2.jpg,,a,,,,,,,,
,,,,,,,,,,,,,ㄴㅁㅇㅁㄴ,2,001,male,2023-10-02_15h20.54.770,openIAT,2020.1.0rc3,Win32,60,l,1,0.5871,,,,,,,,0.5871,1,0,5,5,9,1,stimuli/white_5.jpg,,l,,,,,,,,
,,,,,,,,,,,,,ㄴㅁㅇㅁㄴ,2,001,male,2023-10-02_15h20.54.770,openIAT,2020.1.0rc3,Win32,60,l,1,1.1425,,,,,,,,1.1425,1,0,6,6,5,1,stimuli/white_3.jpg,,l,,,,,,,,
,,,,,,,,,,,,,ㄴㅁㅇㅁㄴ,2,001,male,2023-10-02_15h20.54.770,openIAT,2020.1.0rc3,Win32,60,a,1,0.7031,,,,,,,,0.7031,1,0,7,7,4,1,stimuli/black_3.jpg,,a,,,,,,,,
,,,,,,,,,,,,,ㄴㅁㅇㅁㄴ,2,001,male,2023-10-02_15h20.54.770,openIAT,2020.1.0rc3,Win32,60,l,1,1.1444,,,,,,,,1.1444,1,0,8,8,19,1,stimuli/blank.png,Nasty,l,,,,,,,,
,,,,,,,,,,,,,ㄴㅁㅇㅁㄴ,2,001,male,2023-10-02_15h20.54.770,openIAT,2020.1.0rc3,Win32,60,a,1,1.5726,,,,,,,,1.5726,1,0,9,9,0,1,stimuli/black_1.jpg,,a,,,,,,,,
,,,,,,,,,,,,,ㄴㅁㅇㅁㄴ,2,001,male,2023-10-02_15h20.54.770,openIAT,2020.1.0rc3,Win32,60,l,1,1.089,,,,,,,,1.089,1,0,10,10,13,1,stimuli/blank.png,Hurt,l,,,,,,,,
,,,,,,,,,,,,,ㄴㅁㅇㅁㄴ,2,001,male,2023-10-02_15h20.54.770,openIAT,2020.1.0rc3,Win32,60,l,1,1.008,,,,,,,,1.008,1,0,11,11,17,1,stimuli/blank.png,Evil,l,,,,,,,,
,,,,,,,,,,,,,ㄴㅁㅇㅁㄴ,2,001,male,2023-10-02_15h20.54.770,openIAT,2020.1.0rc3,Win32,60,a,1,0.8672,,,,,,,,0.8672,1,0,12,12,18,1,stimuli/blank.png,Joy,a,,,,,,,,
,,,,,,,,,,,,,ㄴㅁㅇㅁㄴ,2,001,male,2023-10-02_15h20.54.770,openIAT,2020.1.0rc3,Win32,60,a,1,0.9101,,,,,,,,0.9101,1,0,13,13,8,1,stimuli/black_5.jpg,,a,,,,,,,,
,,,,,,,,,,,,,ㄴㅁㅇㅁㄴ,2,001,male,2023-10-02_15h20.54.770,openIAT,2020.1.0rc3,Win32,60,l,1,0.7034,,,,,,,,0.7034,1,0,14,14,1,1,stimuli/white_1.jpg,,l,,,,,,,,
,,,,,,,,,,,,,ㄴㅁㅇㅁㄴ,2,001,male,2023-10-02_15h20.54.770,openIAT,2020.1.0rc3,Win32,60,l,1,1.0172,,,,,,,,1.0172,1,0,15,15,15,1,stimuli/blank.png,Agony,l,,,,,,,,
,,,,,,,,,,,,,ㄴㅁㅇㅁㄴ,2,001,male,2023-10-02_15h20.54.770,openIAT,2020.1.0rc3,Win32,60,a,1,0.6371,,,,,,,,0.6371,1,0,16,16,10,1,stimuli/blank.png,Good,a,,,,,,,,
,,,,,,,,,,,,,ㄴㅁㅇㅁㄴ,2,001,male,2023-10-02_15h20.54.770,openIAT,2020.1.0rc3,Win32,60,a,1,0.5723,,,,,,,,0.5723,1,0,17,17,16,1,stimuli/blank.png,Love,a,,,,,,,,
,,,,,,,,,,,,,ㄴㅁㅇㅁㄴ,2,001,male,2023-10-02_15h20.54.770,openIAT,2020.1.0rc3,Win32,60,a,1,0.6185,,,,,,,,0.6185,1,0,18,18,14,1,stimuli/blank.png,Pleasure,a,,,,,,,,
,,,,,,,,,,,,,ㄴㅁㅇㅁㄴ,2,001,male,2023-10-02_15h20.54.770,openIAT,2020.1.0rc3,Win32,60,l,1,0.9363,,,,,,,,0.9363,1,0,19,19,7,1,stimuli/white_4.jpg,,l,,,,,,,,
,,,,,,,,,,,,,ㄴㅁㅇㅁㄴ,2,001,male,2023-10-02_15h20.54.770,openIAT,2020.1.0rc3,Win32,60,,,,,,,,,,,,,,,,,,,,,0,2,2,2,1,incong_test.xlsx,"A = 
Black or 
Positive","L = 
White or 
Negative"
