instr_done_touch.x,instr_done_touch.y,instr_done_touch.leftButton,instr_done_touch.midButton,instr_done_touch.rightButton,instr_done_touch.clicked_name,instruct_pages.thisRepN,instruct_pages.thisTrialN,instruct_pages.thisN,instruct_pages.thisIndex,instruct_pages.ran,pageN,instruct_text,participant,order,session,gender,date,expName,psychopyVersion,OS,frameRate,key_resp.keys,key_resp.corr,key_resp.rt,touch_resp.x,touch_resp.y,touch_resp.leftButton,touch_resp.midButton,touch_resp.rightButton,touch_resp.time,touch_resp.clicked_name,rt,corr,trials.thisRepN,trials.thisTrialN,trials.thisN,trials.thisIndex,trials.ran,stimImage,stimWord,CorrAns,blocks.thisRepN,blocks.thisTrialN,blocks.thisN,blocks.thisIndex,blocks.ran,conds_file,label_left,label_right
0.111111111,-0.368518519,1,0,0,instr_done_button,0,0,0,0,1,1,"You will be presented with words or images to classify into categories using either the 'A' or 'L' key. 
 
Try to go as fast as possible while making as few mistakes as possible. 
",,1,001,male,2021-11-09_10h18.59.247,openIAT,2020.1.0rc3,Win32,60,,,,,,,,,,,,,,,,,,,,,,,,,,,,
0.111111111,-0.368518519,0,0,0,,0,1,1,1,1,2,"Keep in mind: 
 
1) Labels at the top of the screen indicate which catogory goes with which key. 
 
2) Each word or image has a correct catogory classification 
 
3) Keep your index fingers on the A and L keys to enable a rapid response. 
 
4) The test gives no results if you go slow- please try to go as fast as possible 
",,1,001,male,2021-11-09_10h18.59.247,openIAT,2020.1.0rc3,Win32,60,,,,,,,,,,,,,,,,,,,,,,,,,,,,
,,,,,,,,,,,,,,1,001,male,2021-11-09_10h18.59.247,openIAT,2020.1.0rc3,Win32,60,a,0,0.7267,,,,,,,,0.7267,0,0,0,0,5,1,stimuli/blank.png,Agony,l,,,,,,,,
,,,,,,,,,,,,,,1,001,male,2021-11-09_10h18.59.247,openIAT,2020.1.0rc3,Win32,60,a,1,0.7645,,,,,,,,0.7645,1,0,1,1,4,1,stimuli/blank.png,Pleasure,a,,,,,,,,
,,,,,,,,,,,,,,1,001,male,2021-11-09_10h18.59.247,openIAT,2020.1.0rc3,Win32,60,a,1,0.6087,,,,,,,,0.6087,1,0,2,2,8,1,stimuli/blank.png,Joy,a,,,,,,,,
,,,,,,,,,,,,,,1,001,male,2021-11-09_10h18.59.247,openIAT,2020.1.0rc3,Win32,60,a,1,0.6034,,,,,,,,0.6034,1,0,3,3,2,1,stimuli/blank.png,Happy,a,,,,,,,,
,,,,,,,,,,,,,,1,001,male,2021-11-09_10h18.59.247,openIAT,2020.1.0rc3,Win32,60,l,1,0.6798,,,,,,,,0.6798,1,0,4,4,7,1,stimuli/blank.png,Evil,l,,,,,,,,
,,,,,,,,,,,,,,1,001,male,2021-11-09_10h18.59.247,openIAT,2020.1.0rc3,Win32,60,l,1,0.6541,,,,,,,,0.6541,1,0,5,5,1,1,stimuli/blank.png,Bad,l,,,,,,,,
,,,,,,,,,,,,,,1,001,male,2021-11-09_10h18.59.247,openIAT,2020.1.0rc3,Win32,60,a,1,0.7749,,,,,,,,0.7749,1,0,6,6,6,1,stimuli/blank.png,Love,a,,,,,,,,
,,,,,,,,,,,,,,1,001,male,2021-11-09_10h18.59.247,openIAT,2020.1.0rc3,Win32,60,l,1,0.6989,,,,,,,,0.6989,1,0,7,7,9,1,stimuli/blank.png,Nasty,l,,,,,,,,
,,,,,,,,,,,,,,1,001,male,2021-11-09_10h18.59.247,openIAT,2020.1.0rc3,Win32,60,a,1,0.5636,,,,,,,,0.5636,1,0,8,8,0,1,stimuli/blank.png,Good,a,,,,,,,,
,,,,,,,,,,,,,,1,001,male,2021-11-09_10h18.59.247,openIAT,2020.1.0rc3,Win32,60,l,1,0.622,,,,,,,,0.622,1,0,9,9,3,1,stimuli/blank.png,Hurt,l,,,,,,,,
,,,,,,,,,,,,,,1,001,male,2021-11-09_10h18.59.247,openIAT,2020.1.0rc3,Win32,60,,,,,,,,,,,,,,,,,,,,,0,0,0,0,1,pos_neg_train.xlsx,"A = 
Positive","L = 
Negative"
,,,,,,,,,,,,,,1,001,male,2021-11-09_10h18.59.247,openIAT,2020.1.0rc3,Win32,60,a,1,1.1882,,,,,,,,1.1882,1,0,0,0,9,1,stimuli/white_5.jpg,NaN,a,,,,,,,,
,,,,,,,,,,,,,,1,001,male,2021-11-09_10h18.59.247,openIAT,2020.1.0rc3,Win32,60,l,1,4.68,,,,,,,,4.68,1,0,1,1,6,1,stimuli/black_4.jpg,NaN,l,,,,,,,,
,,,,,,,,,,,,,,1,001,male,2021-11-09_10h18.59.247,openIAT,2020.1.0rc3,Win32,60,a,1,0.7825,,,,,,,,0.7825,1,0,2,2,7,1,stimuli/white_4.jpg,NaN,a,,,,,,,,
,,,,,,,,,,,,,,1,001,male,2021-11-09_10h18.59.247,openIAT,2020.1.0rc3,Win32,60,l,1,0.7701,,,,,,,,0.7701,1,0,3,3,2,1,stimuli/black_2.jpg,NaN,l,,,,,,,,
,,,,,,,,,,,,,,1,001,male,2021-11-09_10h18.59.247,openIAT,2020.1.0rc3,Win32,60,a,1,1.0807,,,,,,,,1.0807,1,0,4,4,5,1,stimuli/white_3.jpg,NaN,a,,,,,,,,
,,,,,,,,,,,,,,1,001,male,2021-11-09_10h18.59.247,openIAT,2020.1.0rc3,Win32,60,a,1,0.8637,,,,,,,,0.8637,1,0,5,5,3,1,stimuli/white_2.jpg,NaN,a,,,,,,,,
,,,,,,,,,,,,,,1,001,male,2021-11-09_10h18.59.247,openIAT,2020.1.0rc3,Win32,60,l,1,0.7493,,,,,,,,0.7493,1,0,6,6,4,1,stimuli/black_3.jpg,NaN,l,,,,,,,,
,,,,,,,,,,,,,,1,001,male,2021-11-09_10h18.59.247,openIAT,2020.1.0rc3,Win32,60,a,1,0.7701,,,,,,,,0.7701,1,0,7,7,1,1,stimuli/white_1.jpg,NaN,a,,,,,,,,
,,,,,,,,,,,,,,1,001,male,2021-11-09_10h18.59.247,openIAT,2020.1.0rc3,Win32,60,l,1,0.7163,,,,,,,,0.7163,1,0,8,8,0,1,stimuli/black_1.jpg,NaN,l,,,,,,,,
,,,,,,,,,,,,,,1,001,male,2021-11-09_10h18.59.247,openIAT,2020.1.0rc3,Win32,60,l,1,0.748,,,,,,,,0.748,1,0,9,9,8,1,stimuli/black_5.jpg,NaN,l,,,,,,,,
,,,,,,,,,,,,,,1,001,male,2021-11-09_10h18.59.247,openIAT,2020.1.0rc3,Win32,60,,,,,,,,,,,,,,,,,,,,,0,1,1,1,1,cong_train.xlsx,"A = 
White","L = 
Black"
