instr_done_touch.x,instr_done_touch.y,instr_done_touch.leftButton,instr_done_touch.midButton,instr_done_touch.rightButton,instruct_pages.thisRepN,instruct_pages.thisTrialN,instruct_pages.thisN,instruct_pages.thisIndex,instruct_pages.ran,pageN,instruct_text,participant,order,session,gender,date,expName,psychopyVersion,OS,frameRate,key_resp.keys,key_resp.corr,key_resp.rt,touch_resp.x,touch_resp.y,touch_resp.leftButton,touch_resp.midButton,touch_resp.rightButton,touch_resp.time,touch_resp.clicked_name,rt,corr,trials.thisRepN,trials.thisTrialN,trials.thisN,trials.thisIndex,trials.ran,stimImage,stimWord,CorrAns,blocks.thisRepN,blocks.thisTrialN,blocks.thisN,blocks.thisIndex,blocks.ran,conds_file,label_left,label_right
0.178947402,-0.208771951,0,0,0,0,0,0,0,1,1,"You will be presented with words or images to classify into categories using either the 'A' or 'L' key. 
 
Try to go as fast as possible while making as few mistakes as possible. 
",,1,001,male,2020-11-27_12h21.25.099,openIAT,2020.1.0rc3,Win32,60,,,,,,,,,,,,,,,,,,,,,,,,,,,,
0.178947402,-0.208771951,0,0,0,0,1,1,1,1,2,"Keep in mind: 
 
1) Labels at the top of the screen indicate which catogory goes with which key. 
 
2) Each word or image has a correct catogory classification 
 
3) Keep your index fingers on the A and L keys to enable a rapid response. 
 
4) The test gives no results if you go slow- please try to go as fast as possible 
",,1,001,male,2020-11-27_12h21.25.099,openIAT,2020.1.0rc3,Win32,60,,,,,,,,,,,,,,,,,,,,,,,,,,,,
,,,,,,,,,,,,,1,001,male,2020-11-27_12h21.25.099,openIAT,2020.1.0rc3,Win32,60,a,1,1.284705,,,,,,,,1.284705,1,0,0,0,6,1,stimuli/blank.png,Love,a,,,,,,,,
,,,,,,,,,,,,,1,001,male,2020-11-27_12h21.25.099,openIAT,2020.1.0rc3,Win32,60,a,1,0.84218,,,,,,,,0.84218,1,0,1,1,8,1,stimuli/blank.png,Joy,a,,,,,,,,
,,,,,,,,,,,,,1,001,male,2020-11-27_12h21.25.099,openIAT,2020.1.0rc3,Win32,60,a,1,1.243115,,,,,,,,1.243115,1,0,2,2,2,1,stimuli/blank.png,Happy,a,,,,,,,,
,,,,,,,,,,,,,1,001,male,2020-11-27_12h21.25.099,openIAT,2020.1.0rc3,Win32,60,l,1,0.862165,,,,,,,,0.862165,1,0,3,3,9,1,stimuli/blank.png,Nasty,l,,,,,,,,
,,,,,,,,,,,,,1,001,male,2020-11-27_12h21.25.099,openIAT,2020.1.0rc3,Win32,60,a,0,1.31926,,,,,,,,1.31926,0,0,4,4,5,1,stimuli/blank.png,Agony,l,,,,,,,,
,,,,,,,,,,,,,1,001,male,2020-11-27_12h21.25.099,openIAT,2020.1.0rc3,Win32,60,l,1,1.147255,,,,,,,,1.147255,1,0,5,5,1,1,stimuli/blank.png,Bad,l,,,,,,,,
,,,,,,,,,,,,,1,001,male,2020-11-27_12h21.25.099,openIAT,2020.1.0rc3,Win32,60,a,1,1.60074,,,,,,,,1.60074,1,0,6,6,0,1,stimuli/blank.png,Good,a,,,,,,,,
,,,,,,,,,,,,,1,001,male,2020-11-27_12h21.25.099,openIAT,2020.1.0rc3,Win32,60,l,1,0.794695,,,,,,,,0.794695,1,0,7,7,7,1,stimuli/blank.png,Evil,l,,,,,,,,
,,,,,,,,,,,,,1,001,male,2020-11-27_12h21.25.099,openIAT,2020.1.0rc3,Win32,60,l,1,1.47034,,,,,,,,1.47034,1,0,8,8,3,1,stimuli/blank.png,Hurt,l,,,,,,,,
,,,,,,,,,,,,,1,001,male,2020-11-27_12h21.25.099,openIAT,2020.1.0rc3,Win32,60,a,1,0.820555,,,,,,,,0.820555,1,0,9,9,4,1,stimuli/blank.png,Pleasure,a,,,,,,,,
,,,,,,,,,,,,,1,001,male,2020-11-27_12h21.25.099,openIAT,2020.1.0rc3,Win32,60,,,,,,,,,,,,,,,,,,,,,0,0,0,0,1,pos_neg_train.xlsx,"A = 
Positive","L = 
Negative"
,,,,,,,,,,,,,1,001,male,2020-11-27_12h21.25.099,openIAT,2020.1.0rc3,Win32,60,l,1,1.31593,,,,,,,,1.31593,1,0,0,0,6,1,stimuli/black_4.jpg,NaN,l,,,,,,,,
,,,,,,,,,,,,,1,001,male,2020-11-27_12h21.25.099,openIAT,2020.1.0rc3,Win32,60,a,1,1.018845,,,,,,,,1.018845,1,0,1,1,5,1,stimuli/white_3.jpg,NaN,a,,,,,,,,
,,,,,,,,,,,,,1,001,male,2020-11-27_12h21.25.099,openIAT,2020.1.0rc3,Win32,60,l,1,0.788345,,,,,,,,0.788345,1,0,2,2,8,1,stimuli/black_5.jpg,NaN,l,,,,,,,,
,,,,,,,,,,,,,1,001,male,2020-11-27_12h21.25.099,openIAT,2020.1.0rc3,Win32,60,l,1,0.5998,,,,,,,,0.5998,1,0,3,3,0,1,stimuli/black_1.jpg,NaN,l,,,,,,,,
,,,,,,,,,,,,,1,001,male,2020-11-27_12h21.25.099,openIAT,2020.1.0rc3,Win32,60,a,1,1.323625,,,,,,,,1.323625,1,0,4,4,1,1,stimuli/white_1.jpg,NaN,a,,,,,,,,
,,,,,,,,,,,,,1,001,male,2020-11-27_12h21.25.099,openIAT,2020.1.0rc3,Win32,60,l,1,0.7326,,,,,,,,0.7326,1,0,5,5,2,1,stimuli/black_2.jpg,NaN,l,,,,,,,,
,,,,,,,,,,,,,1,001,male,2020-11-27_12h21.25.099,openIAT,2020.1.0rc3,Win32,60,a,1,1.7185,,,,,,,,1.7185,1,0,6,6,3,1,stimuli/white_2.jpg,NaN,a,,,,,,,,
,,,,,,,,,,,,,1,001,male,2020-11-27_12h21.25.099,openIAT,2020.1.0rc3,Win32,60,a,1,0.908735,,,,,,,,0.908735,1,0,7,7,9,1,stimuli/white_5.jpg,NaN,a,,,,,,,,
,,,,,,,,,,,,,1,001,male,2020-11-27_12h21.25.099,openIAT,2020.1.0rc3,Win32,60,l,1,0.532785,,,,,,,,0.532785,1,0,8,8,4,1,stimuli/black_3.jpg,NaN,l,,,,,,,,
,,,,,,,,,,,,,1,001,male,2020-11-27_12h21.25.099,openIAT,2020.1.0rc3,Win32,60,a,1,1.375195,,,,,,,,1.375195,1,0,9,9,7,1,stimuli/white_4.jpg,NaN,a,,,,,,,,
,,,,,,,,,,,,,1,001,male,2020-11-27_12h21.25.099,openIAT,2020.1.0rc3,Win32,60,,,,,,,,,,,,,,,,,,,,,0,1,1,1,1,cong_train.xlsx,"A = 
White","L = 
Black"
,,,,,,,,,,,,,1,001,male,2020-11-27_12h21.25.099,openIAT,2020.1.0rc3,Win32,60,a,1,4.549435,,,,,,,,4.549435,1,0,0,0,14,1,stimuli/blank.png,Pleasure,a,,,,,,,,
,,,,,,,,,,,,,1,001,male,2020-11-27_12h21.25.099,openIAT,2020.1.0rc3,Win32,60,a,1,4.375955,,,,,,,,4.375955,1,0,1,1,1,1,stimuli/white_1.jpg,NaN,a,,,,,,,,
,,,,,,,,,,,,,1,001,male,2020-11-27_12h21.25.099,openIAT,2020.1.0rc3,Win32,60,l,1,2.60098,,,,,,,,2.60098,1,0,2,2,8,1,stimuli/black_5.jpg,NaN,l,,,,,,,,
,,,,,,,,,,,,,1,001,male,2020-11-27_12h21.25.099,openIAT,2020.1.0rc3,Win32,60,l,1,1.52389,,,,,,,,1.52389,1,0,3,3,19,1,stimuli/blank.png,Nasty,l,,,,,,,,
