instr_done_touch.x,instr_done_touch.y,instr_done_touch.leftButton,instr_done_touch.midButton,instr_done_touch.rightButton,instr_done_touch.clicked_name,instruct_pages.thisRepN,instruct_pages.thisTrialN,instruct_pages.thisN,instruct_pages.thisIndex,instruct_pages.ran,pageN,instruct_text,participant,order,session,gender,date,expName,psychopyVersion,OS,frameRate,key_resp.keys,key_resp.corr,key_resp.rt,touch_resp.x,touch_resp.y,touch_resp.leftButton,touch_resp.midButton,touch_resp.rightButton,touch_resp.time,touch_resp.clicked_name,rt,corr,trials.thisRepN,trials.thisTrialN,trials.thisN,trials.thisIndex,trials.ran,stimImage,stimWord,CorrAns,blocks.thisRepN,blocks.thisTrialN,blocks.thisN,blocks.thisIndex,blocks.ran,conds_file,label_left,label_right
-0.084444444,-0.397777778,1,0,0,instr_done_button,0,0,0,0,1,1,"You will be presented with words or images to classify into categories using either the 'A' or 'L' key. 
 
Try to go as fast as possible while making as few mistakes as possible. 
",pimo,1,001,female,2022-03-09_18h04.55.834,openIAT,2020.1.0rc3,MacIntel,60,,,,,,,,,,,,,,,,,,,,,,,,,,,,
0.142222222,-0.374444444,1,0,0,instr_done_button,0,1,1,1,1,2,"Keep in mind: 
 
1) Labels at the top of the screen indicate which catogory goes with which key. 
 
2) Each word or image has a correct catogory classification 
 
3) Keep your index fingers on the A and L keys to enable a rapid response. 
 
4) The test gives no results if you go slow- please try to go as fast as possible 
",pimo,1,001,female,2022-03-09_18h04.55.834,openIAT,2020.1.0rc3,MacIntel,60,,,,,,,,,,,,,,,,,,,,,,,,,,,,
,,,,,,,,,,,,,pimo,1,001,female,2022-03-09_18h04.55.834,openIAT,2020.1.0rc3,MacIntel,60,l,1,1.117,,,,,,,,1.117,1,0,0,0,1,1,stimuli/blank.png,Bad,l,,,,,,,,
,,,,,,,,,,,,,pimo,1,001,female,2022-03-09_18h04.55.834,openIAT,2020.1.0rc3,MacIntel,60,a,1,0.876,,,,,,,,0.876,1,0,1,1,0,1,stimuli/blank.png,Good,a,,,,,,,,
,,,,,,,,,,,,,pimo,1,001,female,2022-03-09_18h04.55.834,openIAT,2020.1.0rc3,MacIntel,60,a,1,0.671,,,,,,,,0.671,1,0,2,2,8,1,stimuli/blank.png,Joy,a,,,,,,,,
,,,,,,,,,,,,,pimo,1,001,female,2022-03-09_18h04.55.834,openIAT,2020.1.0rc3,MacIntel,60,a,1,0.513,,,,,,,,0.513,1,0,3,3,2,1,stimuli/blank.png,Happy,a,,,,,,,,
,,,,,,,,,,,,,pimo,1,001,female,2022-03-09_18h04.55.834,openIAT,2020.1.0rc3,MacIntel,60,l,1,0.565,,,,,,,,0.565,1,0,4,4,3,1,stimuli/blank.png,Hurt,l,,,,,,,,
,,,,,,,,,,,,,pimo,1,001,female,2022-03-09_18h04.55.834,openIAT,2020.1.0rc3,MacIntel,60,l,1,0.836,,,,,,,,0.836,1,0,5,5,7,1,stimuli/blank.png,Evil,l,,,,,,,,
,,,,,,,,,,,,,pimo,1,001,female,2022-03-09_18h04.55.834,openIAT,2020.1.0rc3,MacIntel,60,l,1,0.631,,,,,,,,0.631,1,0,6,6,9,1,stimuli/blank.png,Nasty,l,,,,,,,,
,,,,,,,,,,,,,pimo,1,001,female,2022-03-09_18h04.55.834,openIAT,2020.1.0rc3,MacIntel,60,a,1,0.591,,,,,,,,0.591,1,0,7,7,6,1,stimuli/blank.png,Love,a,,,,,,,,
,,,,,,,,,,,,,pimo,1,001,female,2022-03-09_18h04.55.834,openIAT,2020.1.0rc3,MacIntel,60,a,1,0.761,,,,,,,,0.761,1,0,8,8,4,1,stimuli/blank.png,Pleasure,a,,,,,,,,
,,,,,,,,,,,,,pimo,1,001,female,2022-03-09_18h04.55.834,openIAT,2020.1.0rc3,MacIntel,60,l,1,0.623,,,,,,,,0.623,1,0,9,9,5,1,stimuli/blank.png,Agony,l,,,,,,,,
,,,,,,,,,,,,,pimo,1,001,female,2022-03-09_18h04.55.834,openIAT,2020.1.0rc3,MacIntel,60,,,,,,,,,,,,,,,,,,,,,0,0,0,0,1,pos_neg_train.xlsx,"A = 
Positive","L = 
Negative"
,,,,,,,,,,,,,pimo,1,001,female,2022-03-09_18h04.55.834,openIAT,2020.1.0rc3,MacIntel,60,l,1,0.639,,,,,,,,0.639,1,0,0,0,8,1,stimuli/black_5.jpg,NaN,l,,,,,,,,
,,,,,,,,,,,,,pimo,1,001,female,2022-03-09_18h04.55.834,openIAT,2020.1.0rc3,MacIntel,60,a,1,0.737,,,,,,,,0.737,1,0,1,1,7,1,stimuli/white_4.jpg,NaN,a,,,,,,,,
,,,,,,,,,,,,,pimo,1,001,female,2022-03-09_18h04.55.834,openIAT,2020.1.0rc3,MacIntel,60,l,1,0.591,,,,,,,,0.591,1,0,2,2,0,1,stimuli/black_1.jpg,NaN,l,,,,,,,,
,,,,,,,,,,,,,pimo,1,001,female,2022-03-09_18h04.55.834,openIAT,2020.1.0rc3,MacIntel,60,a,1,0.687,,,,,,,,0.687,1,0,3,3,9,1,stimuli/white_5.jpg,NaN,a,,,,,,,,
,,,,,,,,,,,,,pimo,1,001,female,2022-03-09_18h04.55.834,openIAT,2020.1.0rc3,MacIntel,60,l,1,0.663,,,,,,,,0.663,1,0,4,4,6,1,stimuli/black_4.jpg,NaN,l,,,,,,,,
,,,,,,,,,,,,,pimo,1,001,female,2022-03-09_18h04.55.834,openIAT,2020.1.0rc3,MacIntel,60,l,1,0.854,,,,,,,,0.854,1,0,5,5,4,1,stimuli/black_3.jpg,NaN,l,,,,,,,,
,,,,,,,,,,,,,pimo,1,001,female,2022-03-09_18h04.55.834,openIAT,2020.1.0rc3,MacIntel,60,a,1,0.793,,,,,,,,0.793,1,0,6,6,5,1,stimuli/white_3.jpg,NaN,a,,,,,,,,
,,,,,,,,,,,,,pimo,1,001,female,2022-03-09_18h04.55.834,openIAT,2020.1.0rc3,MacIntel,60,a,1,0.837,,,,,,,,0.837,1,0,7,7,3,1,stimuli/white_2.jpg,NaN,a,,,,,,,,
,,,,,,,,,,,,,pimo,1,001,female,2022-03-09_18h04.55.834,openIAT,2020.1.0rc3,MacIntel,60,l,1,0.469,,,,,,,,0.469,1,0,8,8,2,1,stimuli/black_2.jpg,NaN,l,,,,,,,,
,,,,,,,,,,,,,pimo,1,001,female,2022-03-09_18h04.55.834,openIAT,2020.1.0rc3,MacIntel,60,a,1,0.586,,,,,,,,0.586,1,0,9,9,1,1,stimuli/white_1.jpg,NaN,a,,,,,,,,
,,,,,,,,,,,,,pimo,1,001,female,2022-03-09_18h04.55.834,openIAT,2020.1.0rc3,MacIntel,60,,,,,,,,,,,,,,,,,,,,,0,1,1,1,1,cong_train.xlsx,"A = 
White","L = 
Black"
,,,,,,,,,,,,,pimo,1,001,female,2022-03-09_18h04.55.834,openIAT,2020.1.0rc3,MacIntel,60,a,1,0.76,,,,,,,,0.76,1,0,0,0,1,1,stimuli/white_1.jpg,NaN,a,,,,,,,,
,,,,,,,,,,,,,pimo,1,001,female,2022-03-09_18h04.55.834,openIAT,2020.1.0rc3,MacIntel,60,a,1,0.576,,,,,,,,0.576,1,0,1,1,9,1,stimuli/white_5.jpg,NaN,a,,,,,,,,
,,,,,,,,,,,,,pimo,1,001,female,2022-03-09_18h04.55.834,openIAT,2020.1.0rc3,MacIntel,60,a,1,0.638,,,,,,,,0.638,1,0,2,2,18,1,stimuli/blank.png,Joy,a,,,,,,,,
,,,,,,,,,,,,,pimo,1,001,female,2022-03-09_18h04.55.834,openIAT,2020.1.0rc3,MacIntel,60,a,1,0.475,,,,,,,,0.475,1,0,3,3,3,1,stimuli/white_2.jpg,NaN,a,,,,,,,,
,,,,,,,,,,,,,pimo,1,001,female,2022-03-09_18h04.55.834,openIAT,2020.1.0rc3,MacIntel,60,l,1,0.645,,,,,,,,0.645,1,0,4,4,8,1,stimuli/black_5.jpg,NaN,l,,,,,,,,
,,,,,,,,,,,,,pimo,1,001,female,2022-03-09_18h04.55.834,openIAT,2020.1.0rc3,MacIntel,60,l,1,0.713,,,,,,,,0.713,1,0,5,5,11,1,stimuli/blank.png,Bad,l,,,,,,,,
,,,,,,,,,,,,,pimo,1,001,female,2022-03-09_18h04.55.834,openIAT,2020.1.0rc3,MacIntel,60,a,1,0.808,,,,,,,,0.808,1,0,6,6,7,1,stimuli/white_4.jpg,NaN,a,,,,,,,,
,,,,,,,,,,,,,pimo,1,001,female,2022-03-09_18h04.55.834,openIAT,2020.1.0rc3,MacIntel,60,l,1,0.745,,,,,,,,0.745,1,0,7,7,19,1,stimuli/blank.png,Nasty,l,,,,,,,,
,,,,,,,,,,,,,pimo,1,001,female,2022-03-09_18h04.55.834,openIAT,2020.1.0rc3,MacIntel,60,l,1,0.634,,,,,,,,0.634,1,0,8,8,15,1,stimuli/blank.png,Agony,l,,,,,,,,
,,,,,,,,,,,,,pimo,1,001,female,2022-03-09_18h04.55.834,openIAT,2020.1.0rc3,MacIntel,60,l,1,0.723,,,,,,,,0.723,1,0,9,9,4,1,stimuli/black_3.jpg,NaN,l,,,,,,,,
,,,,,,,,,,,,,pimo,1,001,female,2022-03-09_18h04.55.834,openIAT,2020.1.0rc3,MacIntel,60,l,1,0.853,,,,,,,,0.853,1,0,10,10,2,1,stimuli/black_2.jpg,NaN,l,,,,,,,,
,,,,,,,,,,,,,pimo,1,001,female,2022-03-09_18h04.55.834,openIAT,2020.1.0rc3,MacIntel,60,l,1,0.589,,,,,,,,0.589,1,0,11,11,6,1,stimuli/black_4.jpg,NaN,l,,,,,,,,
,,,,,,,,,,,,,pimo,1,001,female,2022-03-09_18h04.55.834,openIAT,2020.1.0rc3,MacIntel,60,a,1,0.667,,,,,,,,0.667,1,0,12,12,16,1,stimuli/blank.png,Love,a,,,,,,,,
,,,,,,,,,,,,,pimo,1,001,female,2022-03-09_18h04.55.834,openIAT,2020.1.0rc3,MacIntel,60,a,1,0.819,,,,,,,,0.819,1,0,13,13,5,1,stimuli/white_3.jpg,NaN,a,,,,,,,,
,,,,,,,,,,,,,pimo,1,001,female,2022-03-09_18h04.55.834,openIAT,2020.1.0rc3,MacIntel,60,l,1,0.622,,,,,,,,0.622,1,0,14,14,13,1,stimuli/blank.png,Hurt,l,,,,,,,,
,,,,,,,,,,,,,pimo,1,001,female,2022-03-09_18h04.55.834,openIAT,2020.1.0rc3,MacIntel,60,a,1,1.154,,,,,,,,1.154,1,0,15,15,10,1,stimuli/blank.png,Good,a,,,,,,,,
,,,,,,,,,,,,,pimo,1,001,female,2022-03-09_18h04.55.834,openIAT,2020.1.0rc3,MacIntel,60,l,1,0.79,,,,,,,,0.79,1,0,16,16,17,1,stimuli/blank.png,Evil,l,,,,,,,,
,,,,,,,,,,,,,pimo,1,001,female,2022-03-09_18h04.55.834,openIAT,2020.1.0rc3,MacIntel,60,a,1,0.974,,,,,,,,0.974,1,0,17,17,12,1,stimuli/blank.png,Happy,a,,,,,,,,
,,,,,,,,,,,,,pimo,1,001,female,2022-03-09_18h04.55.834,openIAT,2020.1.0rc3,MacIntel,60,a,1,0.603,,,,,,,,0.603,1,0,18,18,14,1,stimuli/blank.png,Pleasure,a,,,,,,,,
,,,,,,,,,,,,,pimo,1,001,female,2022-03-09_18h04.55.834,openIAT,2020.1.0rc3,MacIntel,60,l,1,0.641,,,,,,,,0.641,1,0,19,19,0,1,stimuli/black_1.jpg,NaN,l,,,,,,,,
,,,,,,,,,,,,,pimo,1,001,female,2022-03-09_18h04.55.834,openIAT,2020.1.0rc3,MacIntel,60,,,,,,,,,,,,,,,,,,,,,0,2,2,2,1,cong_test.xlsx,"A = 
White or 
Positive","L = 
Black or 
Negative"
,,,,,,,,,,,,,pimo,1,001,female,2022-03-09_18h04.55.834,openIAT,2020.1.0rc3,MacIntel,60,a,1,0.592,,,,,,,,0.592,1,0,0,0,0,1,stimuli/black_1.jpg,,a,,,,,,,,
,,,,,,,,,,,,,pimo,1,001,female,2022-03-09_18h04.55.834,openIAT,2020.1.0rc3,MacIntel,60,a,1,0.61,,,,,,,,0.61,1,0,1,1,4,1,stimuli/black_3.jpg,,a,,,,,,,,
,,,,,,,,,,,,,pimo,1,001,female,2022-03-09_18h04.55.834,openIAT,2020.1.0rc3,MacIntel,60,a,1,0.628,,,,,,,,0.628,1,0,2,2,6,1,stimuli/black_4.jpg,,a,,,,,,,,
,,,,,,,,,,,,,pimo,1,001,female,2022-03-09_18h04.55.834,openIAT,2020.1.0rc3,MacIntel,60,a,1,0.526,,,,,,,,0.526,1,0,3,3,2,1,stimuli/black_2.jpg,,a,,,,,,,,
,,,,,,,,,,,,,pimo,1,001,female,2022-03-09_18h04.55.834,openIAT,2020.1.0rc3,MacIntel,60,l,1,0.64,,,,,,,,0.64,1,0,4,4,5,1,stimuli/white_3.jpg,,l,,,,,,,,
,,,,,,,,,,,,,pimo,1,001,female,2022-03-09_18h04.55.834,openIAT,2020.1.0rc3,MacIntel,60,l,1,0.578,,,,,,,,0.578,1,0,5,5,9,1,stimuli/white_5.jpg,,l,,,,,,,,
,,,,,,,,,,,,,pimo,1,001,female,2022-03-09_18h04.55.834,openIAT,2020.1.0rc3,MacIntel,60,l,1,0.643,,,,,,,,0.643,1,0,6,6,1,1,stimuli/white_1.jpg,,l,,,,,,,,
,,,,,,,,,,,,,pimo,1,001,female,2022-03-09_18h04.55.834,openIAT,2020.1.0rc3,MacIntel,60,a,1,0.638,,,,,,,,0.638,1,0,7,7,8,1,stimuli/black_5.jpg,,a,,,,,,,,
,,,,,,,,,,,,,pimo,1,001,female,2022-03-09_18h04.55.834,openIAT,2020.1.0rc3,MacIntel,60,l,1,0.507,,,,,,,,0.507,1,0,8,8,3,1,stimuli/white_2.jpg,,l,,,,,,,,
,,,,,,,,,,,,,pimo,1,001,female,2022-03-09_18h04.55.834,openIAT,2020.1.0rc3,MacIntel,60,l,1,0.575,,,,,,,,0.575,1,0,9,9,7,1,stimuli/white_4.jpg,,l,,,,,,,,
,,,,,,,,,,,,,pimo,1,001,female,2022-03-09_18h04.55.834,openIAT,2020.1.0rc3,MacIntel,60,,,,,,,,,,,,,,,,,,,,,0,3,3,3,1,incong_train.xlsx,"A = 
Black","L = 
White"
,,,,,,,,,,,,,pimo,1,001,female,2022-03-09_18h04.55.834,openIAT,2020.1.0rc3,MacIntel,60,l,1,0.789,,,,,,,,0.789,1,0,0,0,9,1,stimuli/white_5.jpg,,l,,,,,,,,
,,,,,,,,,,,,,pimo,1,001,female,2022-03-09_18h04.55.834,openIAT,2020.1.0rc3,MacIntel,60,a,1,1.456,,,,,,,,1.456,1,0,1,1,12,1,stimuli/blank.png,Happy,a,,,,,,,,
,,,,,,,,,,,,,pimo,1,001,female,2022-03-09_18h04.55.834,openIAT,2020.1.0rc3,MacIntel,60,a,1,0.739,,,,,,,,0.739,1,0,2,2,14,1,stimuli/blank.png,Pleasure,a,,,,,,,,
,,,,,,,,,,,,,pimo,1,001,female,2022-03-09_18h04.55.834,openIAT,2020.1.0rc3,MacIntel,60,l,1,0.523,,,,,,,,0.523,1,0,3,3,11,1,stimuli/blank.png,Bad,l,,,,,,,,
,,,,,,,,,,,,,pimo,1,001,female,2022-03-09_18h04.55.834,openIAT,2020.1.0rc3,MacIntel,60,a,1,1.462,,,,,,,,1.462,1,0,4,4,4,1,stimuli/black_3.jpg,,a,,,,,,,,
,,,,,,,,,,,,,pimo,1,001,female,2022-03-09_18h04.55.834,openIAT,2020.1.0rc3,MacIntel,60,a,0,0.892,,,,,,,,0.892,0,0,5,5,13,1,stimuli/blank.png,Hurt,l,,,,,,,,
,,,,,,,,,,,,,pimo,1,001,female,2022-03-09_18h04.55.834,openIAT,2020.1.0rc3,MacIntel,60,a,1,1.044,,,,,,,,1.044,1,0,6,6,6,1,stimuli/black_4.jpg,,a,,,,,,,,
,,,,,,,,,,,,,pimo,1,001,female,2022-03-09_18h04.55.834,openIAT,2020.1.0rc3,MacIntel,60,l,1,0.685,,,,,,,,0.685,1,0,7,7,3,1,stimuli/white_2.jpg,,l,,,,,,,,
,,,,,,,,,,,,,pimo,1,001,female,2022-03-09_18h04.55.834,openIAT,2020.1.0rc3,MacIntel,60,a,1,0.612,,,,,,,,0.612,1,0,8,8,0,1,stimuli/black_1.jpg,,a,,,,,,,,
,,,,,,,,,,,,,pimo,1,001,female,2022-03-09_18h04.55.834,openIAT,2020.1.0rc3,MacIntel,60,l,1,0.67,,,,,,,,0.67,1,0,9,9,5,1,stimuli/white_3.jpg,,l,,,,,,,,
,,,,,,,,,,,,,pimo,1,001,female,2022-03-09_18h04.55.834,openIAT,2020.1.0rc3,MacIntel,60,l,0,0.679,,,,,,,,0.679,0,0,10,10,18,1,stimuli/blank.png,Joy,a,,,,,,,,
,,,,,,,,,,,,,pimo,1,001,female,2022-03-09_18h04.55.834,openIAT,2020.1.0rc3,MacIntel,60,a,0,0.042,,,,,,,,0.042,0,0,11,11,19,1,stimuli/blank.png,Nasty,l,,,,,,,,
,,,,,,,,,,,,,pimo,1,001,female,2022-03-09_18h04.55.834,openIAT,2020.1.0rc3,MacIntel,60,a,1,1.319,,,,,,,,1.319,1,0,12,12,16,1,stimuli/blank.png,Love,a,,,,,,,,
,,,,,,,,,,,,,pimo,1,001,female,2022-03-09_18h04.55.834,openIAT,2020.1.0rc3,MacIntel,60,a,1,1.157,,,,,,,,1.157,1,0,13,13,2,1,stimuli/black_2.jpg,,a,,,,,,,,
,,,,,,,,,,,,,pimo,1,001,female,2022-03-09_18h04.55.834,openIAT,2020.1.0rc3,MacIntel,60,l,1,1.123,,,,,,,,1.123,1,0,14,14,1,1,stimuli/white_1.jpg,,l,,,,,,,,
,,,,,,,,,,,,,pimo,1,001,female,2022-03-09_18h04.55.834,openIAT,2020.1.0rc3,MacIntel,60,l,1,0.675,,,,,,,,0.675,1,0,15,15,7,1,stimuli/white_4.jpg,,l,,,,,,,,
,,,,,,,,,,,,,pimo,1,001,female,2022-03-09_18h04.55.834,openIAT,2020.1.0rc3,MacIntel,60,l,1,1.053,,,,,,,,1.053,1,0,16,16,15,1,stimuli/blank.png,Agony,l,,,,,,,,
,,,,,,,,,,,,,pimo,1,001,female,2022-03-09_18h04.55.834,openIAT,2020.1.0rc3,MacIntel,60,a,1,1.592,,,,,,,,1.592,1,0,17,17,8,1,stimuli/black_5.jpg,,a,,,,,,,,
,,,,,,,,,,,,,pimo,1,001,female,2022-03-09_18h04.55.834,openIAT,2020.1.0rc3,MacIntel,60,a,1,1.409,,,,,,,,1.409,1,0,18,18,10,1,stimuli/blank.png,Good,a,,,,,,,,
,,,,,,,,,,,,,pimo,1,001,female,2022-03-09_18h04.55.834,openIAT,2020.1.0rc3,MacIntel,60,l,1,2.059,,,,,,,,2.059,1,0,19,19,17,1,stimuli/blank.png,Evil,l,,,,,,,,
