instr_done_touch.x,instr_done_touch.y,instr_done_touch.leftButton,instr_done_touch.midButton,instr_done_touch.rightButton,instr_done_touch.clicked_name,instruct_pages.thisRepN,instruct_pages.thisTrialN,instruct_pages.thisN,instruct_pages.thisIndex,instruct_pages.ran,pageN,instruct_text,participant,order,session,gender,date,expName,psychopyVersion,OS,frameRate,key_resp.keys,key_resp.corr,key_resp.rt,touch_resp.x,touch_resp.y,touch_resp.leftButton,touch_resp.midButton,touch_resp.rightButton,touch_resp.time,touch_resp.clicked_name,rt,corr,trials.thisRepN,trials.thisTrialN,trials.thisN,trials.thisIndex,trials.ran,stimImage,stimWord,CorrAns,blocks.thisRepN,blocks.thisTrialN,blocks.thisN,blocks.thisIndex,blocks.ran,conds_file,label_left,label_right
0.027430556,-0.400924479,1,0,0,instr_done_button,0,0,0,0,1,1,"You will be presented with words or images to classify into categories using either the 'A' or 'L' key. 
 
Try to go as fast as possible while making as few mistakes as possible. 
",Qaz,1,001,male,2021-02-08_18h08.56.730,openIAT,2020.1.0rc3,MacIntel,60,,,,,,,,,,,,,,,,,,,,,,,,,,,,
-0.01,-0.379305556,1,0,0,instr_done_button,0,1,1,1,1,2,"Keep in mind: 
 
1) Labels at the top of the screen indicate which catogory goes with which key. 
 
2) Each word or image has a correct catogory classification 
 
3) Keep your index fingers on the A and L keys to enable a rapid response. 
 
4) The test gives no results if you go slow- please try to go as fast as possible 
",Qaz,1,001,male,2021-02-08_18h08.56.730,openIAT,2020.1.0rc3,MacIntel,60,,,,,,,,,,,,,,,,,,,,,,,,,,,,
,,,,,,,,,,,,,Qaz,1,001,male,2021-02-08_18h08.56.730,openIAT,2020.1.0rc3,MacIntel,60,l,1,1.339435,,,,,,,,1.339435,1,0,0,0,3,1,stimuli/blank.png,Hurt,l,,,,,,,,
,,,,,,,,,,,,,Qaz,1,001,male,2021-02-08_18h08.56.730,openIAT,2020.1.0rc3,MacIntel,60,a,1,0.83042,,,,,,,,0.83042,1,0,1,1,6,1,stimuli/blank.png,Love,a,,,,,,,,
,,,,,,,,,,,,,Qaz,1,001,male,2021-02-08_18h08.56.730,openIAT,2020.1.0rc3,MacIntel,60,a,1,0.702415,,,,,,,,0.702415,1,0,2,2,2,1,stimuli/blank.png,Happy,a,,,,,,,,
,,,,,,,,,,,,,Qaz,1,001,male,2021-02-08_18h08.56.730,openIAT,2020.1.0rc3,MacIntel,60,a,1,0.806835,,,,,,,,0.806835,1,0,3,3,4,1,stimuli/blank.png,Pleasure,a,,,,,,,,
,,,,,,,,,,,,,Qaz,1,001,male,2021-02-08_18h08.56.730,openIAT,2020.1.0rc3,MacIntel,60,l,1,0.870075,,,,,,,,0.870075,1,0,4,4,9,1,stimuli/blank.png,Nasty,l,,,,,,,,
,,,,,,,,,,,,,Qaz,1,001,male,2021-02-08_18h08.56.730,openIAT,2020.1.0rc3,MacIntel,60,a,1,0.866095,,,,,,,,0.866095,1,0,5,5,0,1,stimuli/blank.png,Good,a,,,,,,,,
,,,,,,,,,,,,,Qaz,1,001,male,2021-02-08_18h08.56.730,openIAT,2020.1.0rc3,MacIntel,60,l,1,1.314885,,,,,,,,1.314885,1,0,6,6,7,1,stimuli/blank.png,Evil,l,,,,,,,,
,,,,,,,,,,,,,Qaz,1,001,male,2021-02-08_18h08.56.730,openIAT,2020.1.0rc3,MacIntel,60,l,1,1.18491,,,,,,,,1.18491,1,0,7,7,5,1,stimuli/blank.png,Agony,l,,,,,,,,
,,,,,,,,,,,,,Qaz,1,001,male,2021-02-08_18h08.56.730,openIAT,2020.1.0rc3,MacIntel,60,a,1,0.731815,,,,,,,,0.731815,1,0,8,8,8,1,stimuli/blank.png,Joy,a,,,,,,,,
,,,,,,,,,,,,,Qaz,1,001,male,2021-02-08_18h08.56.730,openIAT,2020.1.0rc3,MacIntel,60,l,1,1.01448,,,,,,,,1.01448,1,0,9,9,1,1,stimuli/blank.png,Bad,l,,,,,,,,
,,,,,,,,,,,,,Qaz,1,001,male,2021-02-08_18h08.56.730,openIAT,2020.1.0rc3,MacIntel,60,,,,,,,,,,,,,,,,,,,,,0,0,0,0,1,pos_neg_train.xlsx,"A = 
Positive","L = 
Negative"
,,,,,,,,,,,,,Qaz,1,001,male,2021-02-08_18h08.56.730,openIAT,2020.1.0rc3,MacIntel,60,l,1,1.365615,,,,,,,,1.365615,1,0,0,0,8,1,stimuli/black_5.jpg,NaN,l,,,,,,,,
,,,,,,,,,,,,,Qaz,1,001,male,2021-02-08_18h08.56.730,openIAT,2020.1.0rc3,MacIntel,60,l,1,0.78156,,,,,,,,0.78156,1,0,1,1,6,1,stimuli/black_4.jpg,NaN,l,,,,,,,,
,,,,,,,,,,,,,Qaz,1,001,male,2021-02-08_18h08.56.730,openIAT,2020.1.0rc3,MacIntel,60,l,1,0.73015,,,,,,,,0.73015,1,0,2,2,0,1,stimuli/black_1.jpg,NaN,l,,,,,,,,
,,,,,,,,,,,,,Qaz,1,001,male,2021-02-08_18h08.56.730,openIAT,2020.1.0rc3,MacIntel,60,a,1,0.684765,,,,,,,,0.684765,1,0,3,3,1,1,stimuli/white_1.jpg,NaN,a,,,,,,,,
,,,,,,,,,,,,,Qaz,1,001,male,2021-02-08_18h08.56.730,openIAT,2020.1.0rc3,MacIntel,60,a,1,0.697125,,,,,,,,0.697125,1,0,4,4,5,1,stimuli/white_3.jpg,NaN,a,,,,,,,,
,,,,,,,,,,,,,Qaz,1,001,male,2021-02-08_18h08.56.730,openIAT,2020.1.0rc3,MacIntel,60,l,1,0.83081,,,,,,,,0.83081,1,0,5,5,4,1,stimuli/black_3.jpg,NaN,l,,,,,,,,
,,,,,,,,,,,,,Qaz,1,001,male,2021-02-08_18h08.56.730,openIAT,2020.1.0rc3,MacIntel,60,a,1,0.74387,,,,,,,,0.74387,1,0,6,6,7,1,stimuli/white_4.jpg,NaN,a,,,,,,,,
,,,,,,,,,,,,,Qaz,1,001,male,2021-02-08_18h08.56.730,openIAT,2020.1.0rc3,MacIntel,60,a,1,0.66655,,,,,,,,0.66655,1,0,7,7,3,1,stimuli/white_2.jpg,NaN,a,,,,,,,,
,,,,,,,,,,,,,Qaz,1,001,male,2021-02-08_18h08.56.730,openIAT,2020.1.0rc3,MacIntel,60,l,1,0.737765,,,,,,,,0.737765,1,0,8,8,2,1,stimuli/black_2.jpg,NaN,l,,,,,,,,
,,,,,,,,,,,,,Qaz,1,001,male,2021-02-08_18h08.56.730,openIAT,2020.1.0rc3,MacIntel,60,a,1,0.68357,,,,,,,,0.68357,1,0,9,9,9,1,stimuli/white_5.jpg,NaN,a,,,,,,,,
,,,,,,,,,,,,,Qaz,1,001,male,2021-02-08_18h08.56.730,openIAT,2020.1.0rc3,MacIntel,60,,,,,,,,,,,,,,,,,,,,,0,1,1,1,1,cong_train.xlsx,"A = 
White","L = 
Black"
,,,,,,,,,,,,,Qaz,1,001,male,2021-02-08_18h08.56.730,openIAT,2020.1.0rc3,MacIntel,60,a,1,1.130885,,,,,,,,1.130885,1,0,0,0,18,1,stimuli/blank.png,Joy,a,,,,,,,,
,,,,,,,,,,,,,Qaz,1,001,male,2021-02-08_18h08.56.730,openIAT,2020.1.0rc3,MacIntel,60,a,1,1.15118,,,,,,,,1.15118,1,0,1,1,1,1,stimuli/white_1.jpg,NaN,a,,,,,,,,
,,,,,,,,,,,,,Qaz,1,001,male,2021-02-08_18h08.56.730,openIAT,2020.1.0rc3,MacIntel,60,l,1,1.02958,,,,,,,,1.02958,1,0,2,2,11,1,stimuli/blank.png,Bad,l,,,,,,,,
,,,,,,,,,,,,,Qaz,1,001,male,2021-02-08_18h08.56.730,openIAT,2020.1.0rc3,MacIntel,60,l,1,1.42081,,,,,,,,1.42081,1,0,3,3,13,1,stimuli/blank.png,Hurt,l,,,,,,,,
,,,,,,,,,,,,,Qaz,1,001,male,2021-02-08_18h08.56.730,openIAT,2020.1.0rc3,MacIntel,60,a,1,0.77967,,,,,,,,0.77967,1,0,4,4,10,1,stimuli/blank.png,Good,a,,,,,,,,
,,,,,,,,,,,,,Qaz,1,001,male,2021-02-08_18h08.56.730,openIAT,2020.1.0rc3,MacIntel,60,a,1,1.34016,,,,,,,,1.34016,1,0,5,5,3,1,stimuli/white_2.jpg,NaN,a,,,,,,,,
,,,,,,,,,,,,,Qaz,1,001,male,2021-02-08_18h08.56.730,openIAT,2020.1.0rc3,MacIntel,60,a,1,0.844335,,,,,,,,0.844335,1,0,6,6,14,1,stimuli/blank.png,Pleasure,a,,,,,,,,
,,,,,,,,,,,,,Qaz,1,001,male,2021-02-08_18h08.56.730,openIAT,2020.1.0rc3,MacIntel,60,a,1,0.711515,,,,,,,,0.711515,1,0,7,7,7,1,stimuli/white_4.jpg,NaN,a,,,,,,,,
,,,,,,,,,,,,,Qaz,1,001,male,2021-02-08_18h08.56.730,openIAT,2020.1.0rc3,MacIntel,60,a,1,0.71659,,,,,,,,0.71659,1,0,8,8,9,1,stimuli/white_5.jpg,NaN,a,,,,,,,,
,,,,,,,,,,,,,Qaz,1,001,male,2021-02-08_18h08.56.730,openIAT,2020.1.0rc3,MacIntel,60,a,1,0.9731,,,,,,,,0.9731,1,0,9,9,12,1,stimuli/blank.png,Happy,a,,,,,,,,
,,,,,,,,,,,,,Qaz,1,001,male,2021-02-08_18h08.56.730,openIAT,2020.1.0rc3,MacIntel,60,a,1,0.81245,,,,,,,,0.81245,1,0,10,10,16,1,stimuli/blank.png,Love,a,,,,,,,,
,,,,,,,,,,,,,Qaz,1,001,male,2021-02-08_18h08.56.730,openIAT,2020.1.0rc3,MacIntel,60,l,1,0.67208,,,,,,,,0.67208,1,0,11,11,8,1,stimuli/black_5.jpg,NaN,l,,,,,,,,
,,,,,,,,,,,,,Qaz,1,001,male,2021-02-08_18h08.56.730,openIAT,2020.1.0rc3,MacIntel,60,l,1,0.62982,,,,,,,,0.62982,1,0,12,12,4,1,stimuli/black_3.jpg,NaN,l,,,,,,,,
,,,,,,,,,,,,,Qaz,1,001,male,2021-02-08_18h08.56.730,openIAT,2020.1.0rc3,MacIntel,60,l,1,0.648565,,,,,,,,0.648565,1,0,13,13,6,1,stimuli/black_4.jpg,NaN,l,,,,,,,,
,,,,,,,,,,,,,Qaz,1,001,male,2021-02-08_18h08.56.730,openIAT,2020.1.0rc3,MacIntel,60,a,1,0.76449,,,,,,,,0.76449,1,0,14,14,5,1,stimuli/white_3.jpg,NaN,a,,,,,,,,
,,,,,,,,,,,,,Qaz,1,001,male,2021-02-08_18h08.56.730,openIAT,2020.1.0rc3,MacIntel,60,l,1,0.783725,,,,,,,,0.783725,1,0,15,15,15,1,stimuli/blank.png,Agony,l,,,,,,,,
,,,,,,,,,,,,,Qaz,1,001,male,2021-02-08_18h08.56.730,openIAT,2020.1.0rc3,MacIntel,60,l,1,0.66627,,,,,,,,0.66627,1,0,16,16,2,1,stimuli/black_2.jpg,NaN,l,,,,,,,,
,,,,,,,,,,,,,Qaz,1,001,male,2021-02-08_18h08.56.730,openIAT,2020.1.0rc3,MacIntel,60,l,1,0.729195,,,,,,,,0.729195,1,0,17,17,17,1,stimuli/blank.png,Evil,l,,,,,,,,
,,,,,,,,,,,,,Qaz,1,001,male,2021-02-08_18h08.56.730,openIAT,2020.1.0rc3,MacIntel,60,l,1,0.785755,,,,,,,,0.785755,1,0,18,18,0,1,stimuli/black_1.jpg,NaN,l,,,,,,,,
,,,,,,,,,,,,,Qaz,1,001,male,2021-02-08_18h08.56.730,openIAT,2020.1.0rc3,MacIntel,60,l,1,0.79617,,,,,,,,0.79617,1,0,19,19,19,1,stimuli/blank.png,Nasty,l,,,,,,,,
,,,,,,,,,,,,,Qaz,1,001,male,2021-02-08_18h08.56.730,openIAT,2020.1.0rc3,MacIntel,60,,,,,,,,,,,,,,,,,,,,,0,2,2,2,1,cong_test.xlsx,"A = 
White or 
Positive","L = 
Black or 
Negative"
,,,,,,,,,,,,,Qaz,1,001,male,2021-02-08_18h08.56.730,openIAT,2020.1.0rc3,MacIntel,60,a,1,1.81732,,,,,,,,1.81732,1,0,0,0,6,1,stimuli/black_4.jpg,,a,,,,,,,,
,,,,,,,,,,,,,Qaz,1,001,male,2021-02-08_18h08.56.730,openIAT,2020.1.0rc3,MacIntel,60,l,1,0.91555,,,,,,,,0.91555,1,0,1,1,5,1,stimuli/white_3.jpg,,l,,,,,,,,
,,,,,,,,,,,,,Qaz,1,001,male,2021-02-08_18h08.56.730,openIAT,2020.1.0rc3,MacIntel,60,a,1,1.81701,,,,,,,,1.81701,1,0,2,2,0,1,stimuli/black_1.jpg,,a,,,,,,,,
,,,,,,,,,,,,,Qaz,1,001,male,2021-02-08_18h08.56.730,openIAT,2020.1.0rc3,MacIntel,60,l,1,1.465535,,,,,,,,1.465535,1,0,3,3,1,1,stimuli/white_1.jpg,,l,,,,,,,,
