instr_done_touch.x,instr_done_touch.y,instr_done_touch.leftButton,instr_done_touch.midButton,instr_done_touch.rightButton,instr_done_touch.clicked_name,instruct_pages.thisRepN,instruct_pages.thisTrialN,instruct_pages.thisN,instruct_pages.thisIndex,instruct_pages.ran,pageN,instruct_text,participant,order,session,gender,date,expName,psychopyVersion,OS,frameRate,key_resp.keys,key_resp.corr,key_resp.rt,touch_resp.x,touch_resp.y,touch_resp.leftButton,touch_resp.midButton,touch_resp.rightButton,touch_resp.time,touch_resp.clicked_name,rt,corr,trials.thisRepN,trials.thisTrialN,trials.thisN,trials.thisIndex,trials.ran,stimImage,stimWord,CorrAns,blocks.thisRepN,blocks.thisTrialN,blocks.thisN,blocks.thisIndex,blocks.ran,conds_file,label_left,label_right
0.123697917,-0.37109375,1,0,0,instr_done_button,0,0,0,0,1,1,"You will be presented with words or images to classify into categories using either the 'A' or 'L' key. 
 
Try to go as fast as possible while making as few mistakes as possible. 
",qio,2,001,male,2021-07-03_20h44.40.111,openIAT,2020.1.0rc3,Win32,60,,,,,,,,,,,,,,,,,,,,,,,,,,,,
0.123697917,-0.37109375,1,0,0,instr_done_button,0,1,1,1,1,2,"Keep in mind: 
 
1) Labels at the top of the screen indicate which catogory goes with which key. 
 
2) Each word or image has a correct catogory classification 
 
3) Keep your index fingers on the A and L keys to enable a rapid response. 
 
4) The test gives no results if you go slow- please try to go as fast as possible 
",qio,2,001,male,2021-07-03_20h44.40.111,openIAT,2020.1.0rc3,Win32,60,,,,,,,,,,,,,,,,,,,,,,,,,,,,
,,,,,,,,,,,,,qio,2,001,male,2021-07-03_20h44.40.111,openIAT,2020.1.0rc3,Win32,60,a,0,1.6091,,,,,,,,1.6091,0,0,0,0,1,1,stimuli/blank.png,Bad,l,,,,,,,,
,,,,,,,,,,,,,qio,2,001,male,2021-07-03_20h44.40.111,openIAT,2020.1.0rc3,Win32,60,l,1,1.3148,,,,,,,,1.3148,1,0,1,1,5,1,stimuli/blank.png,Agony,l,,,,,,,,
,,,,,,,,,,,,,qio,2,001,male,2021-07-03_20h44.40.111,openIAT,2020.1.0rc3,Win32,60,a,1,1.1484,,,,,,,,1.1484,1,0,2,2,0,1,stimuli/blank.png,Good,a,,,,,,,,
,,,,,,,,,,,,,qio,2,001,male,2021-07-03_20h44.40.111,openIAT,2020.1.0rc3,Win32,60,l,0,1.1921,,,,,,,,1.1921,0,0,3,3,6,1,stimuli/blank.png,Love,a,,,,,,,,
,,,,,,,,,,,,,qio,2,001,male,2021-07-03_20h44.40.111,openIAT,2020.1.0rc3,Win32,60,a,0,0.6997,,,,,,,,0.6997,0,0,4,4,9,1,stimuli/blank.png,Nasty,l,,,,,,,,
,,,,,,,,,,,,,qio,2,001,male,2021-07-03_20h44.40.111,openIAT,2020.1.0rc3,Win32,60,l,1,0.2807,,,,,,,,0.2807,1,0,5,5,3,1,stimuli/blank.png,Hurt,l,,,,,,,,
,,,,,,,,,,,,,qio,2,001,male,2021-07-03_20h44.40.111,openIAT,2020.1.0rc3,Win32,60,a,0,0.2668,,,,,,,,0.2668,0,0,6,6,7,1,stimuli/blank.png,Evil,l,,,,,,,,
,,,,,,,,,,,,,qio,2,001,male,2021-07-03_20h44.40.111,openIAT,2020.1.0rc3,Win32,60,l,0,0.6432,,,,,,,,0.6432,0,0,7,7,8,1,stimuli/blank.png,Joy,a,,,,,,,,
,,,,,,,,,,,,,qio,2,001,male,2021-07-03_20h44.40.111,openIAT,2020.1.0rc3,Win32,60,l,0,0.5156,,,,,,,,0.5156,0,0,8,8,2,1,stimuli/blank.png,Happy,a,,,,,,,,
,,,,,,,,,,,,,qio,2,001,male,2021-07-03_20h44.40.111,openIAT,2020.1.0rc3,Win32,60,a,1,0.4194,,,,,,,,0.4194,1,0,9,9,4,1,stimuli/blank.png,Pleasure,a,,,,,,,,
,,,,,,,,,,,,,qio,2,001,male,2021-07-03_20h44.40.111,openIAT,2020.1.0rc3,Win32,60,,,,,,,,,,,,,,,,,,,,,0,0,0,0,1,pos_neg_train.xlsx,"A = 
Positive","L = 
Negative"
,,,,,,,,,,,,,qio,2,001,male,2021-07-03_20h44.40.111,openIAT,2020.1.0rc3,Win32,60,a,0,2.9963,,,,,,,,2.9963,0,0,0,0,9,1,stimuli/white_5.jpg,,l,,,,,,,,
,,,,,,,,,,,,,qio,2,001,male,2021-07-03_20h44.40.111,openIAT,2020.1.0rc3,Win32,60,l,0,1.6153,,,,,,,,1.6153,0,0,1,1,2,1,stimuli/black_2.jpg,,a,,,,,,,,
,,,,,,,,,,,,,qio,2,001,male,2021-07-03_20h44.40.111,openIAT,2020.1.0rc3,Win32,60,a,0,0.7467,,,,,,,,0.7467,0,0,2,2,7,1,stimuli/white_4.jpg,,l,,,,,,,,
,,,,,,,,,,,,,qio,2,001,male,2021-07-03_20h44.40.111,openIAT,2020.1.0rc3,Win32,60,l,1,0.7541,,,,,,,,0.7541,1,0,3,3,5,1,stimuli/white_3.jpg,,l,,,,,,,,
,,,,,,,,,,,,,qio,2,001,male,2021-07-03_20h44.40.111,openIAT,2020.1.0rc3,Win32,60,l,0,0.465,,,,,,,,0.465,0,0,4,4,0,1,stimuli/black_1.jpg,,a,,,,,,,,
,,,,,,,,,,,,,qio,2,001,male,2021-07-03_20h44.40.111,openIAT,2020.1.0rc3,Win32,60,l,1,0.3946,,,,,,,,0.3946,1,0,5,5,3,1,stimuli/white_2.jpg,,l,,,,,,,,
,,,,,,,,,,,,,qio,2,001,male,2021-07-03_20h44.40.111,openIAT,2020.1.0rc3,Win32,60,l,0,0.5388,,,,,,,,0.5388,0,0,6,6,8,1,stimuli/black_5.jpg,,a,,,,,,,,
,,,,,,,,,,,,,qio,2,001,male,2021-07-03_20h44.40.111,openIAT,2020.1.0rc3,Win32,60,a,1,0.2409,,,,,,,,0.2409,1,0,7,7,4,1,stimuli/black_3.jpg,,a,,,,,,,,
,,,,,,,,,,,,,qio,2,001,male,2021-07-03_20h44.40.111,openIAT,2020.1.0rc3,Win32,60,l,1,0.3273,,,,,,,,0.3273,1,0,8,8,1,1,stimuli/white_1.jpg,,l,,,,,,,,
,,,,,,,,,,,,,qio,2,001,male,2021-07-03_20h44.40.111,openIAT,2020.1.0rc3,Win32,60,l,0,0.1841,,,,,,,,0.1841,0,0,9,9,6,1,stimuli/black_4.jpg,,a,,,,,,,,
,,,,,,,,,,,,,qio,2,001,male,2021-07-03_20h44.40.111,openIAT,2020.1.0rc3,Win32,60,,,,,,,,,,,,,,,,,,,,,0,1,1,1,1,incong_train.xlsx,"A = 
Black","L = 
White"
,,,,,,,,,,,,,qio,2,001,male,2021-07-03_20h44.40.111,openIAT,2020.1.0rc3,Win32,60,l,0,0.6162,,,,,,,,0.6162,0,0,0,0,8,1,stimuli/black_5.jpg,,a,,,,,,,,
,,,,,,,,,,,,,qio,2,001,male,2021-07-03_20h44.40.111,openIAT,2020.1.0rc3,Win32,60,l,0,0.5267,,,,,,,,0.5267,0,0,1,1,10,1,stimuli/blank.png,Good,a,,,,,,,,
,,,,,,,,,,,,,qio,2,001,male,2021-07-03_20h44.40.111,openIAT,2020.1.0rc3,Win32,60,l,1,0.3397,,,,,,,,0.3397,1,0,2,2,19,1,stimuli/blank.png,Nasty,l,,,,,,,,
,,,,,,,,,,,,,qio,2,001,male,2021-07-03_20h44.40.111,openIAT,2020.1.0rc3,Win32,60,l,1,0.407,,,,,,,,0.407,1,0,3,3,17,1,stimuli/blank.png,Evil,l,,,,,,,,
,,,,,,,,,,,,,qio,2,001,male,2021-07-03_20h44.40.111,openIAT,2020.1.0rc3,Win32,60,l,0,0.2629,,,,,,,,0.2629,0,0,4,4,4,1,stimuli/black_3.jpg,,a,,,,,,,,
,,,,,,,,,,,,,qio,2,001,male,2021-07-03_20h44.40.111,openIAT,2020.1.0rc3,Win32,60,l,1,0.4104,,,,,,,,0.4104,1,0,5,5,3,1,stimuli/white_2.jpg,,l,,,,,,,,
,,,,,,,,,,,,,qio,2,001,male,2021-07-03_20h44.40.111,openIAT,2020.1.0rc3,Win32,60,l,1,0.0021,,,,,,,,0.0021,1,0,6,6,15,1,stimuli/blank.png,Agony,l,,,,,,,,
,,,,,,,,,,,,,qio,2,001,male,2021-07-03_20h44.40.111,openIAT,2020.1.0rc3,Win32,60,l,0,0.091,,,,,,,,0.091,0,0,7,7,12,1,stimuli/blank.png,Happy,a,,,,,,,,
,,,,,,,,,,,,,qio,2,001,male,2021-07-03_20h44.40.111,openIAT,2020.1.0rc3,Win32,60,l,0,0.9196,,,,,,,,0.9196,0,0,8,8,2,1,stimuli/black_2.jpg,,a,,,,,,,,
,,,,,,,,,,,,,qio,2,001,male,2021-07-03_20h44.40.111,openIAT,2020.1.0rc3,Win32,60,a,0,0.1272,,,,,,,,0.1272,0,0,9,9,13,1,stimuli/blank.png,Hurt,l,,,,,,,,
,,,,,,,,,,,,,qio,2,001,male,2021-07-03_20h44.40.111,openIAT,2020.1.0rc3,Win32,60,a,1,0.7647,,,,,,,,0.7647,1,0,10,10,16,1,stimuli/blank.png,Love,a,,,,,,,,
,,,,,,,,,,,,,qio,2,001,male,2021-07-03_20h44.40.111,openIAT,2020.1.0rc3,Win32,60,a,0,0.5651,,,,,,,,0.5651,0,0,11,11,5,1,stimuli/white_3.jpg,,l,,,,,,,,
,,,,,,,,,,,,,qio,2,001,male,2021-07-03_20h44.40.111,openIAT,2020.1.0rc3,Win32,60,a,0,0.4117,,,,,,,,0.4117,0,0,12,12,7,1,stimuli/white_4.jpg,,l,,,,,,,,
,,,,,,,,,,,,,qio,2,001,male,2021-07-03_20h44.40.111,openIAT,2020.1.0rc3,Win32,60,a,0,0.9801,,,,,,,,0.9801,0,0,13,13,1,1,stimuli/white_1.jpg,,l,,,,,,,,
,,,,,,,,,,,,,qio,2,001,male,2021-07-03_20h44.40.111,openIAT,2020.1.0rc3,Win32,60,a,0,0.3256,,,,,,,,0.3256,0,0,14,14,11,1,stimuli/blank.png,Bad,l,,,,,,,,
,,,,,,,,,,,,,qio,2,001,male,2021-07-03_20h44.40.111,openIAT,2020.1.0rc3,Win32,60,a,0,0.3372,,,,,,,,0.3372,0,0,15,15,9,1,stimuli/white_5.jpg,,l,,,,,,,,
,,,,,,,,,,,,,qio,2,001,male,2021-07-03_20h44.40.111,openIAT,2020.1.0rc3,Win32,60,a,1,0.5804,,,,,,,,0.5804,1,0,16,16,0,1,stimuli/black_1.jpg,,a,,,,,,,,
,,,,,,,,,,,,,qio,2,001,male,2021-07-03_20h44.40.111,openIAT,2020.1.0rc3,Win32,60,a,1,2.2244,,,,,,,,2.2244,1,0,17,17,6,1,stimuli/black_4.jpg,,a,,,,,,,,
,,,,,,,,,,,,,qio,2,001,male,2021-07-03_20h44.40.111,openIAT,2020.1.0rc3,Win32,60,a,1,0.3856,,,,,,,,0.3856,1,0,18,18,14,1,stimuli/blank.png,Pleasure,a,,,,,,,,
,,,,,,,,,,,,,qio,2,001,male,2021-07-03_20h44.40.111,openIAT,2020.1.0rc3,Win32,60,a,1,0.2813,,,,,,,,0.2813,1,0,19,19,18,1,stimuli/blank.png,Joy,a,,,,,,,,
,,,,,,,,,,,,,qio,2,001,male,2021-07-03_20h44.40.111,openIAT,2020.1.0rc3,Win32,60,,,,,,,,,,,,,,,,,,,,,0,2,2,2,1,incong_test.xlsx,"A = 
Black or 
Positive","L = 
White or 
Negative"
,,,,,,,,,,,,,qio,2,001,male,2021-07-03_20h44.40.111,openIAT,2020.1.0rc3,Win32,60,a,0,0.3263,,,,,,,,0.3263,0,0,0,0,2,1,stimuli/black_2.jpg,NaN,l,,,,,,,,
,,,,,,,,,,,,,qio,2,001,male,2021-07-03_20h44.40.111,openIAT,2020.1.0rc3,Win32,60,a,1,0.2007,,,,,,,,0.2007,1,0,1,1,9,1,stimuli/white_5.jpg,NaN,a,,,,,,,,
,,,,,,,,,,,,,qio,2,001,male,2021-07-03_20h44.40.111,openIAT,2020.1.0rc3,Win32,60,l,1,0.821,,,,,,,,0.821,1,0,2,2,4,1,stimuli/black_3.jpg,NaN,l,,,,,,,,
,,,,,,,,,,,,,qio,2,001,male,2021-07-03_20h44.40.111,openIAT,2020.1.0rc3,Win32,60,l,1,0.2138,,,,,,,,0.2138,1,0,3,3,6,1,stimuli/black_4.jpg,NaN,l,,,,,,,,
,,,,,,,,,,,,,qio,2,001,male,2021-07-03_20h44.40.111,openIAT,2020.1.0rc3,Win32,60,l,0,0.1913,,,,,,,,0.1913,0,0,4,4,7,1,stimuli/white_4.jpg,NaN,a,,,,,,,,
,,,,,,,,,,,,,qio,2,001,male,2021-07-03_20h44.40.111,openIAT,2020.1.0rc3,Win32,60,l,1,0.0413,,,,,,,,0.0413,1,0,5,5,8,1,stimuli/black_5.jpg,NaN,l,,,,,,,,
,,,,,,,,,,,,,qio,2,001,male,2021-07-03_20h44.40.111,openIAT,2020.1.0rc3,Win32,60,l,0,0.5389,,,,,,,,0.5389,0,0,6,6,1,1,stimuli/white_1.jpg,NaN,a,,,,,,,,
,,,,,,,,,,,,,qio,2,001,male,2021-07-03_20h44.40.111,openIAT,2020.1.0rc3,Win32,60,l,0,3.7974,,,,,,,,3.7974,0,0,7,7,5,1,stimuli/white_3.jpg,NaN,a,,,,,,,,
,,,,,,,,,,,,,qio,2,001,male,2021-07-03_20h44.40.111,openIAT,2020.1.0rc3,Win32,60,l,1,0.7226,,,,,,,,0.7226,1,0,8,8,0,1,stimuli/black_1.jpg,NaN,l,,,,,,,,
,,,,,,,,,,,,,qio,2,001,male,2021-07-03_20h44.40.111,openIAT,2020.1.0rc3,Win32,60,l,0,0.0351,,,,,,,,0.0351,0,0,9,9,3,1,stimuli/white_2.jpg,NaN,a,,,,,,,,
,,,,,,,,,,,,,qio,2,001,male,2021-07-03_20h44.40.111,openIAT,2020.1.0rc3,Win32,60,,,,,,,,,,,,,,,,,,,,,0,3,3,3,1,cong_train.xlsx,"A = 
White","L = 
Black"
