instr_done_touch.x,instr_done_touch.y,instr_done_touch.leftButton,instr_done_touch.midButton,instr_done_touch.rightButton,instr_done_touch.clicked_name,instruct_pages.thisRepN,instruct_pages.thisTrialN,instruct_pages.thisN,instruct_pages.thisIndex,instruct_pages.ran,pageN,instruct_text,participant,order,session,gender,date,expName,psychopyVersion,OS,frameRate,key_resp.keys,key_resp.corr,key_resp.rt,touch_resp.x,touch_resp.y,touch_resp.leftButton,touch_resp.midButton,touch_resp.rightButton,touch_resp.time,touch_resp.clicked_name,rt,corr,trials.thisRepN,trials.thisTrialN,trials.thisN,trials.thisIndex,trials.ran,stimImage,stimWord,CorrAns,blocks.thisRepN,blocks.thisTrialN,blocks.thisN,blocks.thisIndex,blocks.ran,conds_file,label_left,label_right
0.021296325,-0.383333347,1,0,0,instr_done_button,0,0,0,0,1,1,"You will be presented with words or images to classify into categories using either the 'A' or 'L' key. 
 
Try to go as fast as possible while making as few mistakes as possible. 
",rodrigo,2,001,male,2023-04-14_21h56.58.568,openIAT,2020.1.0rc3,Win32,60,,,,,,,,,,,,,,,,,,,,,,,,,,,,
-0.042592578,-0.391666695,1,0,0,instr_done_button,0,1,1,1,1,2,"Keep in mind: 
 
1) Labels at the top of the screen indicate which catogory goes with which key. 
 
2) Each word or image has a correct catogory classification 
 
3) Keep your index fingers on the A and L keys to enable a rapid response. 
 
4) The test gives no results if you go slow- please try to go as fast as possible 
",rodrigo,2,001,male,2023-04-14_21h56.58.568,openIAT,2020.1.0rc3,Win32,60,,,,,,,,,,,,,,,,,,,,,,,,,,,,
,,,,,,,,,,,,,rodrigo,2,001,male,2023-04-14_21h56.58.568,openIAT,2020.1.0rc3,Win32,60,a,0,1.762,,,,,,,,1.762,0,0,0,0,5,1,stimuli/blank.png,Agony,l,,,,,,,,
,,,,,,,,,,,,,rodrigo,2,001,male,2023-04-14_21h56.58.568,openIAT,2020.1.0rc3,Win32,60,l,1,2.2824,,,,,,,,2.2824,1,0,1,1,3,1,stimuli/blank.png,Hurt,l,,,,,,,,
,,,,,,,,,,,,,rodrigo,2,001,male,2023-04-14_21h56.58.568,openIAT,2020.1.0rc3,Win32,60,a,1,0.9185,,,,,,,,0.9185,1,0,2,2,2,1,stimuli/blank.png,Happy,a,,,,,,,,
,,,,,,,,,,,,,rodrigo,2,001,male,2023-04-14_21h56.58.568,openIAT,2020.1.0rc3,Win32,60,l,1,1.9499,,,,,,,,1.9499,1,0,3,3,1,1,stimuli/blank.png,Bad,l,,,,,,,,
,,,,,,,,,,,,,rodrigo,2,001,male,2023-04-14_21h56.58.568,openIAT,2020.1.0rc3,Win32,60,l,1,1.1358,,,,,,,,1.1358,1,0,4,4,7,1,stimuli/blank.png,Evil,l,,,,,,,,
,,,,,,,,,,,,,rodrigo,2,001,male,2023-04-14_21h56.58.568,openIAT,2020.1.0rc3,Win32,60,a,1,0.7337,,,,,,,,0.7337,1,0,5,5,6,1,stimuli/blank.png,Love,a,,,,,,,,
,,,,,,,,,,,,,rodrigo,2,001,male,2023-04-14_21h56.58.568,openIAT,2020.1.0rc3,Win32,60,l,0,4.0032,,,,,,,,4.0032,0,0,6,6,4,1,stimuli/blank.png,Pleasure,a,,,,,,,,
,,,,,,,,,,,,,rodrigo,2,001,male,2023-04-14_21h56.58.568,openIAT,2020.1.0rc3,Win32,60,a,1,1.7851,,,,,,,,1.7851,1,0,7,7,8,1,stimuli/blank.png,Joy,a,,,,,,,,
,,,,,,,,,,,,,rodrigo,2,001,male,2023-04-14_21h56.58.568,openIAT,2020.1.0rc3,Win32,60,a,1,0.6186,,,,,,,,0.6186,1,0,8,8,0,1,stimuli/blank.png,Good,a,,,,,,,,
,,,,,,,,,,,,,rodrigo,2,001,male,2023-04-14_21h56.58.568,openIAT,2020.1.0rc3,Win32,60,a,0,5.3745,,,,,,,,5.3745,0,0,9,9,9,1,stimuli/blank.png,Nasty,l,,,,,,,,
,,,,,,,,,,,,,rodrigo,2,001,male,2023-04-14_21h56.58.568,openIAT,2020.1.0rc3,Win32,60,,,,,,,,,,,,,,,,,,,,,0,0,0,0,1,pos_neg_train.xlsx,"A = 
Positive","L = 
Negative"
,,,,,,,,,,,,,rodrigo,2,001,male,2023-04-14_21h56.58.568,openIAT,2020.1.0rc3,Win32,60,a,0,5.4692,,,,,,,,5.4692,0,0,0,0,7,1,stimuli/white_4.jpg,,l,,,,,,,,
,,,,,,,,,,,,,rodrigo,2,001,male,2023-04-14_21h56.58.568,openIAT,2020.1.0rc3,Win32,60,a,1,1.9649,,,,,,,,1.9649,1,0,1,1,8,1,stimuli/black_5.jpg,,a,,,,,,,,
,,,,,,,,,,,,,rodrigo,2,001,male,2023-04-14_21h56.58.568,openIAT,2020.1.0rc3,Win32,60,a,1,0.8533,,,,,,,,0.8533,1,0,2,2,2,1,stimuli/black_2.jpg,,a,,,,,,,,
,,,,,,,,,,,,,rodrigo,2,001,male,2023-04-14_21h56.58.568,openIAT,2020.1.0rc3,Win32,60,l,1,0.9181,,,,,,,,0.9181,1,0,3,3,5,1,stimuli/white_3.jpg,,l,,,,,,,,
,,,,,,,,,,,,,rodrigo,2,001,male,2023-04-14_21h56.58.568,openIAT,2020.1.0rc3,Win32,60,l,1,1.0709,,,,,,,,1.0709,1,0,4,4,3,1,stimuli/white_2.jpg,,l,,,,,,,,
,,,,,,,,,,,,,rodrigo,2,001,male,2023-04-14_21h56.58.568,openIAT,2020.1.0rc3,Win32,60,a,1,0.8362,,,,,,,,0.8362,1,0,5,5,0,1,stimuli/black_1.jpg,,a,,,,,,,,
,,,,,,,,,,,,,rodrigo,2,001,male,2023-04-14_21h56.58.568,openIAT,2020.1.0rc3,Win32,60,l,1,1.0545,,,,,,,,1.0545,1,0,6,6,9,1,stimuli/white_5.jpg,,l,,,,,,,,
,,,,,,,,,,,,,rodrigo,2,001,male,2023-04-14_21h56.58.568,openIAT,2020.1.0rc3,Win32,60,l,1,0.9198,,,,,,,,0.9198,1,0,7,7,1,1,stimuli/white_1.jpg,,l,,,,,,,,
,,,,,,,,,,,,,rodrigo,2,001,male,2023-04-14_21h56.58.568,openIAT,2020.1.0rc3,Win32,60,a,1,0.6669,,,,,,,,0.6669,1,0,8,8,6,1,stimuli/black_4.jpg,,a,,,,,,,,
,,,,,,,,,,,,,rodrigo,2,001,male,2023-04-14_21h56.58.568,openIAT,2020.1.0rc3,Win32,60,a,1,1.1276,,,,,,,,1.1276,1,0,9,9,4,1,stimuli/black_3.jpg,,a,,,,,,,,
,,,,,,,,,,,,,rodrigo,2,001,male,2023-04-14_21h56.58.568,openIAT,2020.1.0rc3,Win32,60,,,,,,,,,,,,,,,,,,,,,0,1,1,1,1,incong_train.xlsx,"A = 
Black","L = 
White"
,,,,,,,,,,,,,rodrigo,2,001,male,2023-04-14_21h56.58.568,openIAT,2020.1.0rc3,Win32,60,a,1,1.0372,,,,,,,,1.0372,1,0,0,0,12,1,stimuli/blank.png,Happy,a,,,,,,,,
,,,,,,,,,,,,,rodrigo,2,001,male,2023-04-14_21h56.58.568,openIAT,2020.1.0rc3,Win32,60,l,1,0.7697,,,,,,,,0.7697,1,0,1,1,13,1,stimuli/blank.png,Hurt,l,,,,,,,,
,,,,,,,,,,,,,rodrigo,2,001,male,2023-04-14_21h56.58.568,openIAT,2020.1.0rc3,Win32,60,a,1,0.525,,,,,,,,0.525,1,0,2,2,16,1,stimuli/blank.png,Love,a,,,,,,,,
,,,,,,,,,,,,,rodrigo,2,001,male,2023-04-14_21h56.58.568,openIAT,2020.1.0rc3,Win32,60,a,1,0.6155,,,,,,,,0.6155,1,0,3,3,10,1,stimuli/blank.png,Good,a,,,,,,,,
,,,,,,,,,,,,,rodrigo,2,001,male,2023-04-14_21h56.58.568,openIAT,2020.1.0rc3,Win32,60,a,1,4.3959,,,,,,,,4.3959,1,0,4,4,8,1,stimuli/black_5.jpg,,a,,,,,,,,
,,,,,,,,,,,,,rodrigo,2,001,male,2023-04-14_21h56.58.568,openIAT,2020.1.0rc3,Win32,60,l,1,0.7274,,,,,,,,0.7274,1,0,5,5,1,1,stimuli/white_1.jpg,,l,,,,,,,,
,,,,,,,,,,,,,rodrigo,2,001,male,2023-04-14_21h56.58.568,openIAT,2020.1.0rc3,Win32,60,a,1,1.2657,,,,,,,,1.2657,1,0,6,6,18,1,stimuli/blank.png,Joy,a,,,,,,,,
,,,,,,,,,,,,,rodrigo,2,001,male,2023-04-14_21h56.58.568,openIAT,2020.1.0rc3,Win32,60,l,1,1.4302,,,,,,,,1.4302,1,0,7,7,17,1,stimuli/blank.png,Evil,l,,,,,,,,
,,,,,,,,,,,,,rodrigo,2,001,male,2023-04-14_21h56.58.568,openIAT,2020.1.0rc3,Win32,60,l,1,2.197,,,,,,,,2.197,1,0,8,8,19,1,stimuli/blank.png,Nasty,l,,,,,,,,
,,,,,,,,,,,,,rodrigo,2,001,male,2023-04-14_21h56.58.568,openIAT,2020.1.0rc3,Win32,60,l,1,3.8982,,,,,,,,3.8982,1,0,9,9,11,1,stimuli/blank.png,Bad,l,,,,,,,,
,,,,,,,,,,,,,rodrigo,2,001,male,2023-04-14_21h56.58.568,openIAT,2020.1.0rc3,Win32,60,l,1,1.0487,,,,,,,,1.0487,1,0,10,10,15,1,stimuli/blank.png,Agony,l,,,,,,,,
,,,,,,,,,,,,,rodrigo,2,001,male,2023-04-14_21h56.58.568,openIAT,2020.1.0rc3,Win32,60,a,1,1.4296,,,,,,,,1.4296,1,0,11,11,0,1,stimuli/black_1.jpg,,a,,,,,,,,
,,,,,,,,,,,,,rodrigo,2,001,male,2023-04-14_21h56.58.568,openIAT,2020.1.0rc3,Win32,60,l,1,1.0251,,,,,,,,1.0251,1,0,12,12,7,1,stimuli/white_4.jpg,,l,,,,,,,,
,,,,,,,,,,,,,rodrigo,2,001,male,2023-04-14_21h56.58.568,openIAT,2020.1.0rc3,Win32,60,l,1,0.9349,,,,,,,,0.9349,1,0,13,13,3,1,stimuli/white_2.jpg,,l,,,,,,,,
,,,,,,,,,,,,,rodrigo,2,001,male,2023-04-14_21h56.58.568,openIAT,2020.1.0rc3,Win32,60,l,1,1.517,,,,,,,,1.517,1,0,14,14,9,1,stimuli/white_5.jpg,,l,,,,,,,,
,,,,,,,,,,,,,rodrigo,2,001,male,2023-04-14_21h56.58.568,openIAT,2020.1.0rc3,Win32,60,a,1,5.4757,,,,,,,,5.4757,1,0,15,15,14,1,stimuli/blank.png,Pleasure,a,,,,,,,,
,,,,,,,,,,,,,rodrigo,2,001,male,2023-04-14_21h56.58.568,openIAT,2020.1.0rc3,Win32,60,l,1,1.1347,,,,,,,,1.1347,1,0,16,16,5,1,stimuli/white_3.jpg,,l,,,,,,,,
,,,,,,,,,,,,,rodrigo,2,001,male,2023-04-14_21h56.58.568,openIAT,2020.1.0rc3,Win32,60,a,1,0.971,,,,,,,,0.971,1,0,17,17,4,1,stimuli/black_3.jpg,,a,,,,,,,,
,,,,,,,,,,,,,rodrigo,2,001,male,2023-04-14_21h56.58.568,openIAT,2020.1.0rc3,Win32,60,a,1,0.6985,,,,,,,,0.6985,1,0,18,18,6,1,stimuli/black_4.jpg,,a,,,,,,,,
,,,,,,,,,,,,,rodrigo,2,001,male,2023-04-14_21h56.58.568,openIAT,2020.1.0rc3,Win32,60,a,1,1.0331,,,,,,,,1.0331,1,0,19,19,2,1,stimuli/black_2.jpg,,a,,,,,,,,
,,,,,,,,,,,,,rodrigo,2,001,male,2023-04-14_21h56.58.568,openIAT,2020.1.0rc3,Win32,60,,,,,,,,,,,,,,,,,,,,,0,2,2,2,1,incong_test.xlsx,"A = 
Black or 
Positive","L = 
White or 
Negative"
,,,,,,,,,,,,,rodrigo,2,001,male,2023-04-14_21h56.58.568,openIAT,2020.1.0rc3,Win32,60,a,1,1.5199,,,,,,,,1.5199,1,0,0,0,1,1,stimuli/white_1.jpg,NaN,a,,,,,,,,
,,,,,,,,,,,,,rodrigo,2,001,male,2023-04-14_21h56.58.568,openIAT,2020.1.0rc3,Win32,60,l,1,0.9294,,,,,,,,0.9294,1,0,1,1,2,1,stimuli/black_2.jpg,NaN,l,,,,,,,,
,,,,,,,,,,,,,rodrigo,2,001,male,2023-04-14_21h56.58.568,openIAT,2020.1.0rc3,Win32,60,l,1,0.796,,,,,,,,0.796,1,0,2,2,8,1,stimuli/black_5.jpg,NaN,l,,,,,,,,
,,,,,,,,,,,,,rodrigo,2,001,male,2023-04-14_21h56.58.568,openIAT,2020.1.0rc3,Win32,60,a,1,1.5098,,,,,,,,1.5098,1,0,3,3,9,1,stimuli/white_5.jpg,NaN,a,,,,,,,,
,,,,,,,,,,,,,rodrigo,2,001,male,2023-04-14_21h56.58.568,openIAT,2020.1.0rc3,Win32,60,a,1,0.6674,,,,,,,,0.6674,1,0,4,4,7,1,stimuli/white_4.jpg,NaN,a,,,,,,,,
,,,,,,,,,,,,,rodrigo,2,001,male,2023-04-14_21h56.58.568,openIAT,2020.1.0rc3,Win32,60,a,1,0.4857,,,,,,,,0.4857,1,0,5,5,3,1,stimuli/white_2.jpg,NaN,a,,,,,,,,
,,,,,,,,,,,,,rodrigo,2,001,male,2023-04-14_21h56.58.568,openIAT,2020.1.0rc3,Win32,60,a,1,0.6005,,,,,,,,0.6005,1,0,6,6,5,1,stimuli/white_3.jpg,NaN,a,,,,,,,,
,,,,,,,,,,,,,rodrigo,2,001,male,2023-04-14_21h56.58.568,openIAT,2020.1.0rc3,Win32,60,l,1,1.1842,,,,,,,,1.1842,1,0,7,7,0,1,stimuli/black_1.jpg,NaN,l,,,,,,,,
,,,,,,,,,,,,,rodrigo,2,001,male,2023-04-14_21h56.58.568,openIAT,2020.1.0rc3,Win32,60,l,1,0.7181,,,,,,,,0.7181,1,0,8,8,4,1,stimuli/black_3.jpg,NaN,l,,,,,,,,
,,,,,,,,,,,,,rodrigo,2,001,male,2023-04-14_21h56.58.568,openIAT,2020.1.0rc3,Win32,60,l,1,0.8192,,,,,,,,0.8192,1,0,9,9,6,1,stimuli/black_4.jpg,NaN,l,,,,,,,,
,,,,,,,,,,,,,rodrigo,2,001,male,2023-04-14_21h56.58.568,openIAT,2020.1.0rc3,Win32,60,,,,,,,,,,,,,,,,,,,,,0,3,3,3,1,cong_train.xlsx,"A = 
White","L = 
Black"
,,,,,,,,,,,,,rodrigo,2,001,male,2023-04-14_21h56.58.568,openIAT,2020.1.0rc3,Win32,60,l,1,1.7982,,,,,,,,1.7982,1,0,0,0,8,1,stimuli/black_5.jpg,NaN,l,,,,,,,,
,,,,,,,,,,,,,rodrigo,2,001,male,2023-04-14_21h56.58.568,openIAT,2020.1.0rc3,Win32,60,a,1,1.8667,,,,,,,,1.8667,1,0,1,1,7,1,stimuli/white_4.jpg,NaN,a,,,,,,,,
