instr_done_touch.x,instr_done_touch.y,instr_done_touch.leftButton,instr_done_touch.midButton,instr_done_touch.rightButton,instr_done_touch.clicked_name,instruct_pages.thisRepN,instruct_pages.thisTrialN,instruct_pages.thisN,instruct_pages.thisIndex,instruct_pages.ran,pageN,instruct_text,participant,order,session,gender,date,expName,psychopyVersion,OS,frameRate,key_resp.keys,key_resp.corr,key_resp.rt,touch_resp.x,touch_resp.y,touch_resp.leftButton,touch_resp.midButton,touch_resp.rightButton,touch_resp.time,touch_resp.clicked_name,rt,corr,trials.thisRepN,trials.thisTrialN,trials.thisN,trials.thisIndex,trials.ran,stimImage,stimWord,CorrAns,blocks.thisRepN,blocks.thisTrialN,blocks.thisN,blocks.thisIndex,blocks.ran,conds_file,label_left,label_right
-0.064814815,-0.382407407,1,0,0,instr_done_button,0,0,0,0,1,1,"You will be presented with words or images to classify into categories using either the 'A' or 'L' key. 
 
Try to go as fast as possible while making as few mistakes as possible. 
",rui,1,001,male,2021-05-28_20h22.14.991,openIAT,2020.1.0rc3,Win32,60,,,,,,,,,,,,,,,,,,,,,,,,,,,,
-0.008333333,-0.4,1,0,0,instr_done_button,0,1,1,1,1,2,"Keep in mind: 
 
1) Labels at the top of the screen indicate which catogory goes with which key. 
 
2) Each word or image has a correct catogory classification 
 
3) Keep your index fingers on the A and L keys to enable a rapid response. 
 
4) The test gives no results if you go slow- please try to go as fast as possible 
",rui,1,001,male,2021-05-28_20h22.14.991,openIAT,2020.1.0rc3,Win32,60,,,,,,,,,,,,,,,,,,,,,,,,,,,,
,,,,,,,,,,,,,rui,1,001,male,2021-05-28_20h22.14.991,openIAT,2020.1.0rc3,Win32,60,a,1,11.4048,,,,,,,,11.4048,1,0,0,0,0,1,stimuli/blank.png,Good,a,,,,,,,,
,,,,,,,,,,,,,rui,1,001,male,2021-05-28_20h22.14.991,openIAT,2020.1.0rc3,Win32,60,l,1,2.59031,,,,,,,,2.59031,1,0,1,1,7,1,stimuli/blank.png,Evil,l,,,,,,,,
,,,,,,,,,,,,,rui,1,001,male,2021-05-28_20h22.14.991,openIAT,2020.1.0rc3,Win32,60,a,1,0.72387,,,,,,,,0.72387,1,0,2,2,6,1,stimuli/blank.png,Love,a,,,,,,,,
,,,,,,,,,,,,,rui,1,001,male,2021-05-28_20h22.14.991,openIAT,2020.1.0rc3,Win32,60,l,1,1.03879,,,,,,,,1.03879,1,0,3,3,1,1,stimuli/blank.png,Bad,l,,,,,,,,
,,,,,,,,,,,,,rui,1,001,male,2021-05-28_20h22.14.991,openIAT,2020.1.0rc3,Win32,60,a,1,0.935635,,,,,,,,0.935635,1,0,4,4,4,1,stimuli/blank.png,Pleasure,a,,,,,,,,
,,,,,,,,,,,,,rui,1,001,male,2021-05-28_20h22.14.991,openIAT,2020.1.0rc3,Win32,60,l,1,1.264385,,,,,,,,1.264385,1,0,5,5,9,1,stimuli/blank.png,Nasty,l,,,,,,,,
,,,,,,,,,,,,,rui,1,001,male,2021-05-28_20h22.14.991,openIAT,2020.1.0rc3,Win32,60,l,1,1.0362,,,,,,,,1.0362,1,0,6,6,5,1,stimuli/blank.png,Agony,l,,,,,,,,
,,,,,,,,,,,,,rui,1,001,male,2021-05-28_20h22.14.991,openIAT,2020.1.0rc3,Win32,60,a,1,0.842855,,,,,,,,0.842855,1,0,7,7,8,1,stimuli/blank.png,Joy,a,,,,,,,,
,,,,,,,,,,,,,rui,1,001,male,2021-05-28_20h22.14.991,openIAT,2020.1.0rc3,Win32,60,a,1,0.69629,,,,,,,,0.69629,1,0,8,8,2,1,stimuli/blank.png,Happy,a,,,,,,,,
,,,,,,,,,,,,,rui,1,001,male,2021-05-28_20h22.14.991,openIAT,2020.1.0rc3,Win32,60,l,1,0.83728,,,,,,,,0.83728,1,0,9,9,3,1,stimuli/blank.png,Hurt,l,,,,,,,,
,,,,,,,,,,,,,rui,1,001,male,2021-05-28_20h22.14.991,openIAT,2020.1.0rc3,Win32,60,,,,,,,,,,,,,,,,,,,,,0,0,0,0,1,pos_neg_train.xlsx,"A = 
Positive","L = 
Negative"
,,,,,,,,,,,,,rui,1,001,male,2021-05-28_20h22.14.991,openIAT,2020.1.0rc3,Win32,60,l,1,4.08909,,,,,,,,4.08909,1,0,0,0,8,1,stimuli/black_5.jpg,NaN,l,,,,,,,,
,,,,,,,,,,,,,rui,1,001,male,2021-05-28_20h22.14.991,openIAT,2020.1.0rc3,Win32,60,a,1,1.393015,,,,,,,,1.393015,1,0,1,1,5,1,stimuli/white_3.jpg,NaN,a,,,,,,,,
,,,,,,,,,,,,,rui,1,001,male,2021-05-28_20h22.14.991,openIAT,2020.1.0rc3,Win32,60,a,1,1.647685,,,,,,,,1.647685,1,0,2,2,9,1,stimuli/white_5.jpg,NaN,a,,,,,,,,
,,,,,,,,,,,,,rui,1,001,male,2021-05-28_20h22.14.991,openIAT,2020.1.0rc3,Win32,60,a,1,1.125635,,,,,,,,1.125635,1,0,3,3,3,1,stimuli/white_2.jpg,NaN,a,,,,,,,,
,,,,,,,,,,,,,rui,1,001,male,2021-05-28_20h22.14.991,openIAT,2020.1.0rc3,Win32,60,l,1,0.703875,,,,,,,,0.703875,1,0,4,4,6,1,stimuli/black_4.jpg,NaN,l,,,,,,,,
,,,,,,,,,,,,,rui,1,001,male,2021-05-28_20h22.14.991,openIAT,2020.1.0rc3,Win32,60,a,1,0.795515,,,,,,,,0.795515,1,0,5,5,7,1,stimuli/white_4.jpg,NaN,a,,,,,,,,
,,,,,,,,,,,,,rui,1,001,male,2021-05-28_20h22.14.991,openIAT,2020.1.0rc3,Win32,60,l,1,0.703885,,,,,,,,0.703885,1,0,6,6,2,1,stimuli/black_2.jpg,NaN,l,,,,,,,,
,,,,,,,,,,,,,rui,1,001,male,2021-05-28_20h22.14.991,openIAT,2020.1.0rc3,Win32,60,l,1,0.840805,,,,,,,,0.840805,1,0,7,7,0,1,stimuli/black_1.jpg,NaN,l,,,,,,,,
,,,,,,,,,,,,,rui,1,001,male,2021-05-28_20h22.14.991,openIAT,2020.1.0rc3,Win32,60,l,1,0.711455,,,,,,,,0.711455,1,0,8,8,4,1,stimuli/black_3.jpg,NaN,l,,,,,,,,
,,,,,,,,,,,,,rui,1,001,male,2021-05-28_20h22.14.991,openIAT,2020.1.0rc3,Win32,60,a,1,1.21981,,,,,,,,1.21981,1,0,9,9,1,1,stimuli/white_1.jpg,NaN,a,,,,,,,,
,,,,,,,,,,,,,rui,1,001,male,2021-05-28_20h22.14.991,openIAT,2020.1.0rc3,Win32,60,,,,,,,,,,,,,,,,,,,,,0,1,1,1,1,cong_train.xlsx,"A = 
White","L = 
Black"
,,,,,,,,,,,,,rui,1,001,male,2021-05-28_20h22.14.991,openIAT,2020.1.0rc3,Win32,60,l,1,1.52811,,,,,,,,1.52811,1,0,0,0,8,1,stimuli/black_5.jpg,NaN,l,,,,,,,,
,,,,,,,,,,,,,rui,1,001,male,2021-05-28_20h22.14.991,openIAT,2020.1.0rc3,Win32,60,a,0,1.03794,,,,,,,,1.03794,0,0,1,1,15,1,stimuli/blank.png,Agony,l,,,,,,,,
,,,,,,,,,,,,,rui,1,001,male,2021-05-28_20h22.14.991,openIAT,2020.1.0rc3,Win32,60,a,1,1.192075,,,,,,,,1.192075,1,0,2,2,14,1,stimuli/blank.png,Pleasure,a,,,,,,,,
,,,,,,,,,,,,,rui,1,001,male,2021-05-28_20h22.14.991,openIAT,2020.1.0rc3,Win32,60,a,1,2.959725,,,,,,,,2.959725,1,0,3,3,10,1,stimuli/blank.png,Good,a,,,,,,,,
,,,,,,,,,,,,,rui,1,001,male,2021-05-28_20h22.14.991,openIAT,2020.1.0rc3,Win32,60,l,1,1.23904,,,,,,,,1.23904,1,0,4,4,6,1,stimuli/black_4.jpg,NaN,l,,,,,,,,
,,,,,,,,,,,,,rui,1,001,male,2021-05-28_20h22.14.991,openIAT,2020.1.0rc3,Win32,60,a,1,0.801965,,,,,,,,0.801965,1,0,5,5,7,1,stimuli/white_4.jpg,NaN,a,,,,,,,,
,,,,,,,,,,,,,rui,1,001,male,2021-05-28_20h22.14.991,openIAT,2020.1.0rc3,Win32,60,a,1,0.620595,,,,,,,,0.620595,1,0,6,6,16,1,stimuli/blank.png,Love,a,,,,,,,,
,,,,,,,,,,,,,rui,1,001,male,2021-05-28_20h22.14.991,openIAT,2020.1.0rc3,Win32,60,l,1,0.7355,,,,,,,,0.7355,1,0,7,7,2,1,stimuli/black_2.jpg,NaN,l,,,,,,,,
,,,,,,,,,,,,,rui,1,001,male,2021-05-28_20h22.14.991,openIAT,2020.1.0rc3,Win32,60,a,1,0.639455,,,,,,,,0.639455,1,0,8,8,5,1,stimuli/white_3.jpg,NaN,a,,,,,,,,
,,,,,,,,,,,,,rui,1,001,male,2021-05-28_20h22.14.991,openIAT,2020.1.0rc3,Win32,60,a,1,0.942175,,,,,,,,0.942175,1,0,9,9,1,1,stimuli/white_1.jpg,NaN,a,,,,,,,,
,,,,,,,,,,,,,rui,1,001,male,2021-05-28_20h22.14.991,openIAT,2020.1.0rc3,Win32,60,l,1,0.82138,,,,,,,,0.82138,1,0,10,10,4,1,stimuli/black_3.jpg,NaN,l,,,,,,,,
,,,,,,,,,,,,,rui,1,001,male,2021-05-28_20h22.14.991,openIAT,2020.1.0rc3,Win32,60,a,0,0.669965,,,,,,,,0.669965,0,0,11,11,11,1,stimuli/blank.png,Bad,l,,,,,,,,
,,,,,,,,,,,,,rui,1,001,male,2021-05-28_20h22.14.991,openIAT,2020.1.0rc3,Win32,60,a,1,0.90245,,,,,,,,0.90245,1,0,12,12,9,1,stimuli/white_5.jpg,NaN,a,,,,,,,,
,,,,,,,,,,,,,rui,1,001,male,2021-05-28_20h22.14.991,openIAT,2020.1.0rc3,Win32,60,a,1,0.91147,,,,,,,,0.91147,1,0,13,13,18,1,stimuli/blank.png,Joy,a,,,,,,,,
,,,,,,,,,,,,,rui,1,001,male,2021-05-28_20h22.14.991,openIAT,2020.1.0rc3,Win32,60,a,1,0.81995,,,,,,,,0.81995,1,0,14,14,3,1,stimuli/white_2.jpg,NaN,a,,,,,,,,
,,,,,,,,,,,,,rui,1,001,male,2021-05-28_20h22.14.991,openIAT,2020.1.0rc3,Win32,60,l,1,0.721195,,,,,,,,0.721195,1,0,15,15,17,1,stimuli/blank.png,Evil,l,,,,,,,,
,,,,,,,,,,,,,rui,1,001,male,2021-05-28_20h22.14.991,openIAT,2020.1.0rc3,Win32,60,l,1,0.63753,,,,,,,,0.63753,1,0,16,16,13,1,stimuli/blank.png,Hurt,l,,,,,,,,
,,,,,,,,,,,,,rui,1,001,male,2021-05-28_20h22.14.991,openIAT,2020.1.0rc3,Win32,60,l,1,0.842935,,,,,,,,0.842935,1,0,17,17,19,1,stimuli/blank.png,Nasty,l,,,,,,,,
,,,,,,,,,,,,,rui,1,001,male,2021-05-28_20h22.14.991,openIAT,2020.1.0rc3,Win32,60,a,1,0.602,,,,,,,,0.602,1,0,18,18,12,1,stimuli/blank.png,Happy,a,,,,,,,,
,,,,,,,,,,,,,rui,1,001,male,2021-05-28_20h22.14.991,openIAT,2020.1.0rc3,Win32,60,l,1,0.857605,,,,,,,,0.857605,1,0,19,19,0,1,stimuli/black_1.jpg,NaN,l,,,,,,,,
,,,,,,,,,,,,,rui,1,001,male,2021-05-28_20h22.14.991,openIAT,2020.1.0rc3,Win32,60,,,,,,,,,,,,,,,,,,,,,0,2,2,2,1,cong_test.xlsx,"A = 
White or 
Positive","L = 
Black or 
Negative"
,,,,,,,,,,,,,rui,1,001,male,2021-05-28_20h22.14.991,openIAT,2020.1.0rc3,Win32,60,a,0,1.482635,,,,,,,,1.482635,0,0,0,0,5,1,stimuli/white_3.jpg,,l,,,,,,,,
,,,,,,,,,,,,,rui,1,001,male,2021-05-28_20h22.14.991,openIAT,2020.1.0rc3,Win32,60,l,0,3.31109,,,,,,,,3.31109,0,0,1,1,8,1,stimuli/black_5.jpg,,a,,,,,,,,
,,,,,,,,,,,,,rui,1,001,male,2021-05-28_20h22.14.991,openIAT,2020.1.0rc3,Win32,60,l,1,2.311585,,,,,,,,2.311585,1,0,2,2,9,1,stimuli/white_5.jpg,,l,,,,,,,,
,,,,,,,,,,,,,rui,1,001,male,2021-05-28_20h22.14.991,openIAT,2020.1.0rc3,Win32,60,a,1,1.031145,,,,,,,,1.031145,1,0,3,3,2,1,stimuli/black_2.jpg,,a,,,,,,,,
,,,,,,,,,,,,,rui,1,001,male,2021-05-28_20h22.14.991,openIAT,2020.1.0rc3,Win32,60,a,1,0.92696,,,,,,,,0.92696,1,0,4,4,4,1,stimuli/black_3.jpg,,a,,,,,,,,
,,,,,,,,,,,,,rui,1,001,male,2021-05-28_20h22.14.991,openIAT,2020.1.0rc3,Win32,60,a,1,0.79773,,,,,,,,0.79773,1,0,5,5,0,1,stimuli/black_1.jpg,,a,,,,,,,,
,,,,,,,,,,,,,rui,1,001,male,2021-05-28_20h22.14.991,openIAT,2020.1.0rc3,Win32,60,a,1,0.959545,,,,,,,,0.959545,1,0,6,6,6,1,stimuli/black_4.jpg,,a,,,,,,,,
,,,,,,,,,,,,,rui,1,001,male,2021-05-28_20h22.14.991,openIAT,2020.1.0rc3,Win32,60,l,1,0.976375,,,,,,,,0.976375,1,0,7,7,3,1,stimuli/white_2.jpg,,l,,,,,,,,
,,,,,,,,,,,,,rui,1,001,male,2021-05-28_20h22.14.991,openIAT,2020.1.0rc3,Win32,60,l,1,0.630085,,,,,,,,0.630085,1,0,8,8,1,1,stimuli/white_1.jpg,,l,,,,,,,,
,,,,,,,,,,,,,rui,1,001,male,2021-05-28_20h22.14.991,openIAT,2020.1.0rc3,Win32,60,l,1,0.686625,,,,,,,,0.686625,1,0,9,9,7,1,stimuli/white_4.jpg,,l,,,,,,,,
,,,,,,,,,,,,,rui,1,001,male,2021-05-28_20h22.14.991,openIAT,2020.1.0rc3,Win32,60,,,,,,,,,,,,,,,,,,,,,0,3,3,3,1,incong_train.xlsx,"A = 
Black","L = 
White"
,,,,,,,,,,,,,rui,1,001,male,2021-05-28_20h22.14.991,openIAT,2020.1.0rc3,Win32,60,a,1,1.23531,,,,,,,,1.23531,1,0,0,0,16,1,stimuli/blank.png,Love,a,,,,,,,,
,,,,,,,,,,,,,rui,1,001,male,2021-05-28_20h22.14.991,openIAT,2020.1.0rc3,Win32,60,a,1,0.90116,,,,,,,,0.90116,1,0,1,1,10,1,stimuli/blank.png,Good,a,,,,,,,,
,,,,,,,,,,,,,rui,1,001,male,2021-05-28_20h22.14.991,openIAT,2020.1.0rc3,Win32,60,l,1,1.07001,,,,,,,,1.07001,1,0,2,2,19,1,stimuli/blank.png,Nasty,l,,,,,,,,
,,,,,,,,,,,,,rui,1,001,male,2021-05-28_20h22.14.991,openIAT,2020.1.0rc3,Win32,60,l,1,0.93934,,,,,,,,0.93934,1,0,3,3,13,1,stimuli/blank.png,Hurt,l,,,,,,,,
,,,,,,,,,,,,,rui,1,001,male,2021-05-28_20h22.14.991,openIAT,2020.1.0rc3,Win32,60,l,1,2.187545,,,,,,,,2.187545,1,0,4,4,3,1,stimuli/white_2.jpg,,l,,,,,,,,
,,,,,,,,,,,,,rui,1,001,male,2021-05-28_20h22.14.991,openIAT,2020.1.0rc3,Win32,60,l,0,1.51038,,,,,,,,1.51038,0,0,5,5,18,1,stimuli/blank.png,Joy,a,,,,,,,,
,,,,,,,,,,,,,rui,1,001,male,2021-05-28_20h22.14.991,openIAT,2020.1.0rc3,Win32,60,a,1,1.57717,,,,,,,,1.57717,1,0,6,6,14,1,stimuli/blank.png,Pleasure,a,,,,,,,,
,,,,,,,,,,,,,rui,1,001,male,2021-05-28_20h22.14.991,openIAT,2020.1.0rc3,Win32,60,a,1,1.21725,,,,,,,,1.21725,1,0,7,7,8,1,stimuli/black_5.jpg,,a,,,,,,,,
,,,,,,,,,,,,,rui,1,001,male,2021-05-28_20h22.14.991,openIAT,2020.1.0rc3,Win32,60,a,1,0.700005,,,,,,,,0.700005,1,0,8,8,6,1,stimuli/black_4.jpg,,a,,,,,,,,
,,,,,,,,,,,,,rui,1,001,male,2021-05-28_20h22.14.991,openIAT,2020.1.0rc3,Win32,60,l,1,1.338085,,,,,,,,1.338085,1,0,9,9,17,1,stimuli/blank.png,Evil,l,,,,,,,,
,,,,,,,,,,,,,rui,1,001,male,2021-05-28_20h22.14.991,openIAT,2020.1.0rc3,Win32,60,l,1,0.899875,,,,,,,,0.899875,1,0,10,10,15,1,stimuli/blank.png,Agony,l,,,,,,,,
,,,,,,,,,,,,,rui,1,001,male,2021-05-28_20h22.14.991,openIAT,2020.1.0rc3,Win32,60,a,1,1.119475,,,,,,,,1.119475,1,0,11,11,4,1,stimuli/black_3.jpg,,a,,,,,,,,
,,,,,,,,,,,,,rui,1,001,male,2021-05-28_20h22.14.991,openIAT,2020.1.0rc3,Win32,60,l,1,2.131685,,,,,,,,2.131685,1,0,12,12,7,1,stimuli/white_4.jpg,,l,,,,,,,,
,,,,,,,,,,,,,rui,1,001,male,2021-05-28_20h22.14.991,openIAT,2020.1.0rc3,Win32,60,l,1,1.709925,,,,,,,,1.709925,1,0,13,13,11,1,stimuli/blank.png,Bad,l,,,,,,,,
,,,,,,,,,,,,,rui,1,001,male,2021-05-28_20h22.14.991,openIAT,2020.1.0rc3,Win32,60,l,1,1.34539,,,,,,,,1.34539,1,0,14,14,9,1,stimuli/white_5.jpg,,l,,,,,,,,
,,,,,,,,,,,,,rui,1,001,male,2021-05-28_20h22.14.991,openIAT,2020.1.0rc3,Win32,60,a,1,0.797595,,,,,,,,0.797595,1,0,15,15,0,1,stimuli/black_1.jpg,,a,,,,,,,,
,,,,,,,,,,,,,rui,1,001,male,2021-05-28_20h22.14.991,openIAT,2020.1.0rc3,Win32,60,l,1,1.290255,,,,,,,,1.290255,1,0,16,16,5,1,stimuli/white_3.jpg,,l,,,,,,,,
,,,,,,,,,,,,,rui,1,001,male,2021-05-28_20h22.14.991,openIAT,2020.1.0rc3,Win32,60,l,1,0.6636,,,,,,,,0.6636,1,0,17,17,1,1,stimuli/white_1.jpg,,l,,,,,,,,
,,,,,,,,,,,,,rui,1,001,male,2021-05-28_20h22.14.991,openIAT,2020.1.0rc3,Win32,60,a,1,1.443995,,,,,,,,1.443995,1,0,18,18,12,1,stimuli/blank.png,Happy,a,,,,,,,,
,,,,,,,,,,,,,rui,1,001,male,2021-05-28_20h22.14.991,openIAT,2020.1.0rc3,Win32,60,a,1,1.36237,,,,,,,,1.36237,1,0,19,19,2,1,stimuli/black_2.jpg,,a,,,,,,,,
