instr_done_touch.x,instr_done_touch.y,instr_done_touch.leftButton,instr_done_touch.midButton,instr_done_touch.rightButton,instr_done_touch.clicked_name,instruct_pages.thisRepN,instruct_pages.thisTrialN,instruct_pages.thisN,instruct_pages.thisIndex,instruct_pages.ran,pageN,instruct_text,participant,order,session,gender,date,expName,psychopyVersion,OS,frameRate,key_resp.keys,key_resp.corr,key_resp.rt,touch_resp.x,touch_resp.y,touch_resp.leftButton,touch_resp.midButton,touch_resp.rightButton,touch_resp.time,touch_resp.clicked_name,rt,corr,trials.thisRepN,trials.thisTrialN,trials.thisN,trials.thisIndex,trials.ran,stimImage,stimWord,CorrAns,blocks.thisRepN,blocks.thisTrialN,blocks.thisN,blocks.thisIndex,blocks.ran,conds_file,label_left,label_right
-0.042972703,-0.397827265,1,0,0,instr_done_button,0,0,0,0,1,1,"You will be presented with words or images to classify into categories using either the 'A' or 'L' key. 
 
Try to go as fast as possible while making as few mistakes as possible. 
",s,2,001,male,2023-01-17_15h11.16.551,openIAT,2020.1.0rc3,Win32,60,,,,,,,,,,,,,,,,,,,,,,,,,,,,
-0.042972703,-0.396902495,1,0,0,instr_done_button,0,1,1,1,1,2,"Keep in mind: 
 
1) Labels at the top of the screen indicate which catogory goes with which key. 
 
2) Each word or image has a correct catogory classification 
 
3) Keep your index fingers on the A and L keys to enable a rapid response. 
 
4) The test gives no results if you go slow- please try to go as fast as possible 
",s,2,001,male,2023-01-17_15h11.16.551,openIAT,2020.1.0rc3,Win32,60,,,,,,,,,,,,,,,,,,,,,,,,,,,,
,,,,,,,,,,,,,s,2,001,male,2023-01-17_15h11.16.551,openIAT,2020.1.0rc3,Win32,60,a,1,7.7468,,,,,,,,7.7468,1,0,0,0,8,1,stimuli/blank.png,Joy,a,,,,,,,,
,,,,,,,,,,,,,s,2,001,male,2023-01-17_15h11.16.551,openIAT,2020.1.0rc3,Win32,60,a,1,0.7932,,,,,,,,0.7932,1,0,1,1,2,1,stimuli/blank.png,Happy,a,,,,,,,,
,,,,,,,,,,,,,s,2,001,male,2023-01-17_15h11.16.551,openIAT,2020.1.0rc3,Win32,60,a,1,2.1184,,,,,,,,2.1184,1,0,2,2,0,1,stimuli/blank.png,Good,a,,,,,,,,
,,,,,,,,,,,,,s,2,001,male,2023-01-17_15h11.16.551,openIAT,2020.1.0rc3,Win32,60,l,1,3.6307,,,,,,,,3.6307,1,0,3,3,7,1,stimuli/blank.png,Evil,l,,,,,,,,
,,,,,,,,,,,,,s,2,001,male,2023-01-17_15h11.16.551,openIAT,2020.1.0rc3,Win32,60,l,1,2.7704,,,,,,,,2.7704,1,0,4,4,3,1,stimuli/blank.png,Hurt,l,,,,,,,,
,,,,,,,,,,,,,s,2,001,male,2023-01-17_15h11.16.551,openIAT,2020.1.0rc3,Win32,60,l,0,2.6134,,,,,,,,2.6134,0,0,5,5,6,1,stimuli/blank.png,Love,a,,,,,,,,
,,,,,,,,,,,,,s,2,001,male,2023-01-17_15h11.16.551,openIAT,2020.1.0rc3,Win32,60,a,1,3.895,,,,,,,,3.895,1,0,6,6,4,1,stimuli/blank.png,Pleasure,a,,,,,,,,
,,,,,,,,,,,,,s,2,001,male,2023-01-17_15h11.16.551,openIAT,2020.1.0rc3,Win32,60,a,0,1.31,,,,,,,,1.31,0,0,7,7,5,1,stimuli/blank.png,Agony,l,,,,,,,,
,,,,,,,,,,,,,s,2,001,male,2023-01-17_15h11.16.551,openIAT,2020.1.0rc3,Win32,60,l,1,1.3664,,,,,,,,1.3664,1,0,8,8,9,1,stimuli/blank.png,Nasty,l,,,,,,,,
,,,,,,,,,,,,,s,2,001,male,2023-01-17_15h11.16.551,openIAT,2020.1.0rc3,Win32,60,l,1,0.7126,,,,,,,,0.7126,1,0,9,9,1,1,stimuli/blank.png,Bad,l,,,,,,,,
,,,,,,,,,,,,,s,2,001,male,2023-01-17_15h11.16.551,openIAT,2020.1.0rc3,Win32,60,,,,,,,,,,,,,,,,,,,,,0,0,0,0,1,pos_neg_train.xlsx,"A = 
Positive","L = 
Negative"
,,,,,,,,,,,,,s,2,001,male,2023-01-17_15h11.16.551,openIAT,2020.1.0rc3,Win32,60,a,1,8.1983,,,,,,,,8.1983,1,0,0,0,6,1,stimuli/black_4.jpg,,a,,,,,,,,
,,,,,,,,,,,,,s,2,001,male,2023-01-17_15h11.16.551,openIAT,2020.1.0rc3,Win32,60,l,1,1.2636,,,,,,,,1.2636,1,0,1,1,1,1,stimuli/white_1.jpg,,l,,,,,,,,
,,,,,,,,,,,,,s,2,001,male,2023-01-17_15h11.16.551,openIAT,2020.1.0rc3,Win32,60,l,1,0.6883,,,,,,,,0.6883,1,0,2,2,7,1,stimuli/white_4.jpg,,l,,,,,,,,
,,,,,,,,,,,,,s,2,001,male,2023-01-17_15h11.16.551,openIAT,2020.1.0rc3,Win32,60,l,1,1.3136,,,,,,,,1.3136,1,0,3,3,9,1,stimuli/white_5.jpg,,l,,,,,,,,
,,,,,,,,,,,,,s,2,001,male,2023-01-17_15h11.16.551,openIAT,2020.1.0rc3,Win32,60,a,1,1.2819,,,,,,,,1.2819,1,0,4,4,8,1,stimuli/black_5.jpg,,a,,,,,,,,
,,,,,,,,,,,,,s,2,001,male,2023-01-17_15h11.16.551,openIAT,2020.1.0rc3,Win32,60,a,1,0.6867,,,,,,,,0.6867,1,0,5,5,2,1,stimuli/black_2.jpg,,a,,,,,,,,
,,,,,,,,,,,,,s,2,001,male,2023-01-17_15h11.16.551,openIAT,2020.1.0rc3,Win32,60,l,1,1.1009,,,,,,,,1.1009,1,0,6,6,5,1,stimuli/white_3.jpg,,l,,,,,,,,
,,,,,,,,,,,,,s,2,001,male,2023-01-17_15h11.16.551,openIAT,2020.1.0rc3,Win32,60,a,1,0.9555,,,,,,,,0.9555,1,0,7,7,0,1,stimuli/black_1.jpg,,a,,,,,,,,
,,,,,,,,,,,,,s,2,001,male,2023-01-17_15h11.16.551,openIAT,2020.1.0rc3,Win32,60,a,1,0.8402,,,,,,,,0.8402,1,0,8,8,4,1,stimuli/black_3.jpg,,a,,,,,,,,
,,,,,,,,,,,,,s,2,001,male,2023-01-17_15h11.16.551,openIAT,2020.1.0rc3,Win32,60,l,1,0.9313,,,,,,,,0.9313,1,0,9,9,3,1,stimuli/white_2.jpg,,l,,,,,,,,
,,,,,,,,,,,,,s,2,001,male,2023-01-17_15h11.16.551,openIAT,2020.1.0rc3,Win32,60,,,,,,,,,,,,,,,,,,,,,0,1,1,1,1,incong_train.xlsx,"A = 
Black","L = 
White"
,,,,,,,,,,,,,s,2,001,male,2023-01-17_15h11.16.551,openIAT,2020.1.0rc3,Win32,60,a,1,1.3781,,,,,,,,1.3781,1,0,0,0,16,1,stimuli/blank.png,Love,a,,,,,,,,
,,,,,,,,,,,,,s,2,001,male,2023-01-17_15h11.16.551,openIAT,2020.1.0rc3,Win32,60,a,1,6.6038,,,,,,,,6.6038,1,0,1,1,18,1,stimuli/blank.png,Joy,a,,,,,,,,
,,,,,,,,,,,,,s,2,001,male,2023-01-17_15h11.16.551,openIAT,2020.1.0rc3,Win32,60,a,1,3.8921,,,,,,,,3.8921,1,0,2,2,0,1,stimuli/black_1.jpg,,a,,,,,,,,
,,,,,,,,,,,,,s,2,001,male,2023-01-17_15h11.16.551,openIAT,2020.1.0rc3,Win32,60,l,1,2.1944,,,,,,,,2.1944,1,0,3,3,19,1,stimuli/blank.png,Nasty,l,,,,,,,,
,,,,,,,,,,,,,s,2,001,male,2023-01-17_15h11.16.551,openIAT,2020.1.0rc3,Win32,60,l,1,1.3719,,,,,,,,1.3719,1,0,4,4,13,1,stimuli/blank.png,Hurt,l,,,,,,,,
,,,,,,,,,,,,,s,2,001,male,2023-01-17_15h11.16.551,openIAT,2020.1.0rc3,Win32,60,l,1,1.0505,,,,,,,,1.0505,1,0,5,5,11,1,stimuli/blank.png,Bad,l,,,,,,,,
,,,,,,,,,,,,,s,2,001,male,2023-01-17_15h11.16.551,openIAT,2020.1.0rc3,Win32,60,l,1,1.3211,,,,,,,,1.3211,1,0,6,6,1,1,stimuli/white_1.jpg,,l,,,,,,,,
,,,,,,,,,,,,,s,2,001,male,2023-01-17_15h11.16.551,openIAT,2020.1.0rc3,Win32,60,l,0,1.1197,,,,,,,,1.1197,0,0,7,7,12,1,stimuli/blank.png,Happy,a,,,,,,,,
,,,,,,,,,,,,,s,2,001,male,2023-01-17_15h11.16.551,openIAT,2020.1.0rc3,Win32,60,a,1,0.9892,,,,,,,,0.9892,1,0,8,8,4,1,stimuli/black_3.jpg,,a,,,,,,,,
,,,,,,,,,,,,,s,2,001,male,2023-01-17_15h11.16.551,openIAT,2020.1.0rc3,Win32,60,l,1,2.7007,,,,,,,,2.7007,1,0,9,9,5,1,stimuli/white_3.jpg,,l,,,,,,,,
,,,,,,,,,,,,,s,2,001,male,2023-01-17_15h11.16.551,openIAT,2020.1.0rc3,Win32,60,l,0,1.5364,,,,,,,,1.5364,0,0,10,10,10,1,stimuli/blank.png,Good,a,,,,,,,,
,,,,,,,,,,,,,s,2,001,male,2023-01-17_15h11.16.551,openIAT,2020.1.0rc3,Win32,60,a,1,0.758,,,,,,,,0.758,1,0,11,11,8,1,stimuli/black_5.jpg,,a,,,,,,,,
,,,,,,,,,,,,,s,2,001,male,2023-01-17_15h11.16.551,openIAT,2020.1.0rc3,Win32,60,a,1,0.564,,,,,,,,0.564,1,0,12,12,6,1,stimuli/black_4.jpg,,a,,,,,,,,
,,,,,,,,,,,,,s,2,001,male,2023-01-17_15h11.16.551,openIAT,2020.1.0rc3,Win32,60,a,0,0.9044,,,,,,,,0.9044,0,0,13,13,9,1,stimuli/white_5.jpg,,l,,,,,,,,
,,,,,,,,,,,,,s,2,001,male,2023-01-17_15h11.16.551,openIAT,2020.1.0rc3,Win32,60,l,1,1.036,,,,,,,,1.036,1,0,14,14,3,1,stimuli/white_2.jpg,,l,,,,,,,,
,,,,,,,,,,,,,s,2,001,male,2023-01-17_15h11.16.551,openIAT,2020.1.0rc3,Win32,60,l,1,0.6745,,,,,,,,0.6745,1,0,15,15,7,1,stimuli/white_4.jpg,,l,,,,,,,,
,,,,,,,,,,,,,s,2,001,male,2023-01-17_15h11.16.551,openIAT,2020.1.0rc3,Win32,60,a,0,0.7688,,,,,,,,0.7688,0,0,16,16,15,1,stimuli/blank.png,Agony,l,,,,,,,,
,,,,,,,,,,,,,s,2,001,male,2023-01-17_15h11.16.551,openIAT,2020.1.0rc3,Win32,60,l,1,0.5822,,,,,,,,0.5822,1,0,17,17,17,1,stimuli/blank.png,Evil,l,,,,,,,,
,,,,,,,,,,,,,s,2,001,male,2023-01-17_15h11.16.551,openIAT,2020.1.0rc3,Win32,60,l,0,0.6114,,,,,,,,0.6114,0,0,18,18,14,1,stimuli/blank.png,Pleasure,a,,,,,,,,
,,,,,,,,,,,,,s,2,001,male,2023-01-17_15h11.16.551,openIAT,2020.1.0rc3,Win32,60,a,1,1.5316,,,,,,,,1.5316,1,0,19,19,2,1,stimuli/black_2.jpg,,a,,,,,,,,
,,,,,,,,,,,,,s,2,001,male,2023-01-17_15h11.16.551,openIAT,2020.1.0rc3,Win32,60,,,,,,,,,,,,,,,,,,,,,0,2,2,2,1,incong_test.xlsx,"A = 
Black or 
Positive","L = 
White or 
Negative"
,,,,,,,,,,,,,s,2,001,male,2023-01-17_15h11.16.551,openIAT,2020.1.0rc3,Win32,60,l,0,2.0968,,,,,,,,2.0968,0,0,0,0,9,1,stimuli/white_5.jpg,NaN,a,,,,,,,,
,,,,,,,,,,,,,s,2,001,male,2023-01-17_15h11.16.551,openIAT,2020.1.0rc3,Win32,60,l,1,1.1049,,,,,,,,1.1049,1,0,1,1,4,1,stimuli/black_3.jpg,NaN,l,,,,,,,,
,,,,,,,,,,,,,s,2,001,male,2023-01-17_15h11.16.551,openIAT,2020.1.0rc3,Win32,60,a,1,1.7004,,,,,,,,1.7004,1,0,2,2,3,1,stimuli/white_2.jpg,NaN,a,,,,,,,,
,,,,,,,,,,,,,s,2,001,male,2023-01-17_15h11.16.551,openIAT,2020.1.0rc3,Win32,60,a,1,1.0101,,,,,,,,1.0101,1,0,3,3,7,1,stimuli/white_4.jpg,NaN,a,,,,,,,,
,,,,,,,,,,,,,s,2,001,male,2023-01-17_15h11.16.551,openIAT,2020.1.0rc3,Win32,60,l,1,1.7871,,,,,,,,1.7871,1,0,4,4,0,1,stimuli/black_1.jpg,NaN,l,,,,,,,,
,,,,,,,,,,,,,s,2,001,male,2023-01-17_15h11.16.551,openIAT,2020.1.0rc3,Win32,60,l,1,1.2712,,,,,,,,1.2712,1,0,5,5,2,1,stimuli/black_2.jpg,NaN,l,,,,,,,,
,,,,,,,,,,,,,s,2,001,male,2023-01-17_15h11.16.551,openIAT,2020.1.0rc3,Win32,60,l,1,0.9137,,,,,,,,0.9137,1,0,6,6,6,1,stimuli/black_4.jpg,NaN,l,,,,,,,,
,,,,,,,,,,,,,s,2,001,male,2023-01-17_15h11.16.551,openIAT,2020.1.0rc3,Win32,60,a,1,1.3848,,,,,,,,1.3848,1,0,7,7,5,1,stimuli/white_3.jpg,NaN,a,,,,,,,,
,,,,,,,,,,,,,s,2,001,male,2023-01-17_15h11.16.551,openIAT,2020.1.0rc3,Win32,60,a,1,1.6052,,,,,,,,1.6052,1,0,8,8,1,1,stimuli/white_1.jpg,NaN,a,,,,,,,,
,,,,,,,,,,,,,s,2,001,male,2023-01-17_15h11.16.551,openIAT,2020.1.0rc3,Win32,60,a,0,0.8966,,,,,,,,0.8966,0,0,9,9,8,1,stimuli/black_5.jpg,NaN,l,,,,,,,,
,,,,,,,,,,,,,s,2,001,male,2023-01-17_15h11.16.551,openIAT,2020.1.0rc3,Win32,60,,,,,,,,,,,,,,,,,,,,,0,3,3,3,1,cong_train.xlsx,"A = 
White","L = 
Black"
,,,,,,,,,,,,,s,2,001,male,2023-01-17_15h11.16.551,openIAT,2020.1.0rc3,Win32,60,a,0,2.7964,,,,,,,,2.7964,0,0,0,0,6,1,stimuli/black_4.jpg,NaN,l,,,,,,,,
,,,,,,,,,,,,,s,2,001,male,2023-01-17_15h11.16.551,openIAT,2020.1.0rc3,Win32,60,a,1,3.5899,,,,,,,,3.5899,1,0,1,1,16,1,stimuli/blank.png,Love,a,,,,,,,,
,,,,,,,,,,,,,s,2,001,male,2023-01-17_15h11.16.551,openIAT,2020.1.0rc3,Win32,60,a,1,0.8269,,,,,,,,0.8269,1,0,2,2,12,1,stimuli/blank.png,Happy,a,,,,,,,,
,,,,,,,,,,,,,s,2,001,male,2023-01-17_15h11.16.551,openIAT,2020.1.0rc3,Win32,60,l,1,0.9182,,,,,,,,0.9182,1,0,3,3,11,1,stimuli/blank.png,Bad,l,,,,,,,,
,,,,,,,,,,,,,s,2,001,male,2023-01-17_15h11.16.551,openIAT,2020.1.0rc3,Win32,60,a,0,1.0615,,,,,,,,1.0615,0,0,4,4,0,1,stimuli/black_1.jpg,NaN,l,,,,,,,,
,,,,,,,,,,,,,s,2,001,male,2023-01-17_15h11.16.551,openIAT,2020.1.0rc3,Win32,60,l,0,1.1222,,,,,,,,1.1222,0,0,5,5,3,1,stimuli/white_2.jpg,NaN,a,,,,,,,,
,,,,,,,,,,,,,s,2,001,male,2023-01-17_15h11.16.551,openIAT,2020.1.0rc3,Win32,60,a,0,0.6636,,,,,,,,0.6636,0,0,6,6,4,1,stimuli/black_3.jpg,NaN,l,,,,,,,,
,,,,,,,,,,,,,s,2,001,male,2023-01-17_15h11.16.551,openIAT,2020.1.0rc3,Win32,60,l,1,0.9189,,,,,,,,0.9189,1,0,7,7,17,1,stimuli/blank.png,Evil,l,,,,,,,,
,,,,,,,,,,,,,s,2,001,male,2023-01-17_15h11.16.551,openIAT,2020.1.0rc3,Win32,60,l,1,2.374,,,,,,,,2.374,1,0,8,8,2,1,stimuli/black_2.jpg,NaN,l,,,,,,,,
,,,,,,,,,,,,,s,2,001,male,2023-01-17_15h11.16.551,openIAT,2020.1.0rc3,Win32,60,a,1,1.5981,,,,,,,,1.5981,1,0,9,9,14,1,stimuli/blank.png,Pleasure,a,,,,,,,,
,,,,,,,,,,,,,s,2,001,male,2023-01-17_15h11.16.551,openIAT,2020.1.0rc3,Win32,60,a,1,1.2605,,,,,,,,1.2605,1,0,10,10,7,1,stimuli/white_4.jpg,NaN,a,,,,,,,,
,,,,,,,,,,,,,s,2,001,male,2023-01-17_15h11.16.551,openIAT,2020.1.0rc3,Win32,60,a,1,0.8329,,,,,,,,0.8329,1,0,11,11,1,1,stimuli/white_1.jpg,NaN,a,,,,,,,,
,,,,,,,,,,,,,s,2,001,male,2023-01-17_15h11.16.551,openIAT,2020.1.0rc3,Win32,60,a,1,0.5713,,,,,,,,0.5713,1,0,12,12,5,1,stimuli/white_3.jpg,NaN,a,,,,,,,,
,,,,,,,,,,,,,s,2,001,male,2023-01-17_15h11.16.551,openIAT,2020.1.0rc3,Win32,60,l,1,0.6634,,,,,,,,0.6634,1,0,13,13,8,1,stimuli/black_5.jpg,NaN,l,,,,,,,,
,,,,,,,,,,,,,s,2,001,male,2023-01-17_15h11.16.551,openIAT,2020.1.0rc3,Win32,60,l,1,0.6217,,,,,,,,0.6217,1,0,14,14,19,1,stimuli/blank.png,Nasty,l,,,,,,,,
,,,,,,,,,,,,,s,2,001,male,2023-01-17_15h11.16.551,openIAT,2020.1.0rc3,Win32,60,a,1,0.7339,,,,,,,,0.7339,1,0,15,15,9,1,stimuli/white_5.jpg,NaN,a,,,,,,,,
,,,,,,,,,,,,,s,2,001,male,2023-01-17_15h11.16.551,openIAT,2020.1.0rc3,Win32,60,l,1,1.3499,,,,,,,,1.3499,1,0,16,16,13,1,stimuli/blank.png,Hurt,l,,,,,,,,
