instr_done_touch.x,instr_done_touch.y,instr_done_touch.leftButton,instr_done_touch.midButton,instr_done_touch.rightButton,instr_done_touch.clicked_name,instruct_pages.thisRepN,instruct_pages.thisTrialN,instruct_pages.thisN,instruct_pages.thisIndex,instruct_pages.ran,pageN,instruct_text,participant,order,session,gender,date,expName,psychopyVersion,OS,frameRate,key_resp.keys,key_resp.corr,touch_resp.x,touch_resp.y,touch_resp.leftButton,touch_resp.midButton,touch_resp.rightButton,touch_resp.time,touch_resp.clicked_name,rt,corr,trials.thisRepN,trials.thisTrialN,trials.thisN,trials.thisIndex,trials.ran,stimImage,stimWord,CorrAns,blocks.thisRepN,blocks.thisTrialN,blocks.thisN,blocks.thisIndex,blocks.ran,conds_file,label_left,label_right
0.064031434,-0.361246053,1,0,0,instr_done_button,0,0,0,0,1,1,"You will be presented with words or images to classify into categories using either the 'A' or 'L' key. 
 
Try to go as fast as possible while making as few mistakes as possible. 
",sana,2,001,female,2021-09-23_12h26.40.487,openIAT,2020.1.0rc3,Linux aarch64,60,,,,,,,,,,,,,,,,,,,,,,,,,,,
0.101017109,-0.381588093,1,0,0,instr_done_button,0,1,1,1,1,2,"Keep in mind: 
 
1) Labels at the top of the screen indicate which catogory goes with which key. 
 
2) Each word or image has a correct catogory classification 
 
3) Keep your index fingers on the A and L keys to enable a rapid response. 
 
4) The test gives no results if you go slow- please try to go as fast as possible 
",sana,2,001,female,2021-09-23_12h26.40.487,openIAT,2020.1.0rc3,Linux aarch64,60,,,,,,,,,,,,,,,,,,,,,,,,,,,
,,,,,,,,,,,,,sana,2,001,female,2021-09-23_12h26.40.487,openIAT,2020.1.0rc3,Linux aarch64,60,,0,-0.344660194,-0.352924236,1,0,0,2.1625,button_left,2.1625,1,0,0,0,0,1,stimuli/blank.png,Good,a,,,,,,,,
,,,,,,,,,,,,,sana,2,001,female,2021-09-23_12h26.40.487,openIAT,2020.1.0rc3,Linux aarch64,60,,0,0.317383257,-0.285425427,1,0,0,1.3293,button_right,1.3293,1,0,1,1,1,1,stimuli/blank.png,Bad,l,,,,,,,,
,,,,,,,,,,,,,sana,2,001,female,2021-09-23_12h26.40.487,openIAT,2020.1.0rc3,Linux aarch64,60,,0,0.010402235,0.028952812,1,0,0,0.0234,button_left,0.0234,1,0,2,2,2,1,stimuli/blank.png,Happy,a,,,,,,,,
,,,,,,,,,,,,,sana,2,001,female,2021-09-23_12h26.40.487,openIAT,2020.1.0rc3,Linux aarch64,60,,0,0.287794835,-0.347376407,1,0,0,0.8316,button_right,0.8316,1,0,3,3,9,1,stimuli/blank.png,Nasty,l,,,,,,,,
,,,,,,,,,,,,,sana,2,001,female,2021-09-23_12h26.40.487,openIAT,2020.1.0rc3,Linux aarch64,60,,0,0.335876094,-0.307616743,1,0,0,2.124,button_right,2.124,1,0,4,4,7,1,stimuli/blank.png,Evil,l,,,,,,,,
,,,,,,,,,,,,,sana,2,001,female,2021-09-23_12h26.40.487,openIAT,2020.1.0rc3,Linux aarch64,60,,0,-0.38164586,-0.336280601,1,0,0,1.1172,button_left,1.1172,1,0,5,5,4,1,stimuli/blank.png,Pleasure,a,,,,,,,,
,,,,,,,,,,,,,sana,2,001,female,2021-09-23_12h26.40.487,openIAT,2020.1.0rc3,Linux aarch64,60,,0,0.334951456,-0.309466019,1,0,0,3.0424,button_right,3.0424,0,0,6,6,6,1,stimuli/blank.png,Love,a,,,,,,,,
,,,,,,,,,,,,,sana,2,001,female,2021-09-23_12h26.40.487,openIAT,2020.1.0rc3,Linux aarch64,60,,0,0.273925115,-0.394533028,1,0,0,0.7833,button_right,0.7833,1,0,7,7,5,1,stimuli/blank.png,Agony,l,,,,,,,,
,,,,,,,,,,,,,sana,2,001,female,2021-09-23_12h26.40.487,openIAT,2020.1.0rc3,Linux aarch64,60,,0,-0.340961623,-0.36309533,1,0,0,0.6683,button_left,0.6683,1,0,8,8,8,1,stimuli/blank.png,Joy,a,,,,,,,,
,,,,,,,,,,,,,sana,2,001,female,2021-09-23_12h26.40.487,openIAT,2020.1.0rc3,Linux aarch64,60,,0,0.317383257,-0.350150247,1,0,0,0.7019,button_right,0.7019,1,0,9,9,3,1,stimuli/blank.png,Hurt,l,,,,,,,,
,,,,,,,,,,,,,sana,2,001,female,2021-09-23_12h26.40.487,openIAT,2020.1.0rc3,Linux aarch64,60,,,,,,,,,,,,,,,,,,,,0,0,0,0,1,pos_neg_train.xlsx,"A = 
Positive","L = 
Negative"
,,,,,,,,,,,,,sana,2,001,female,2021-09-23_12h26.40.487,openIAT,2020.1.0rc3,Linux aarch64,60,,0,-0.355755889,-0.3538488,1,0,0,1.2113,button_left,1.2113,1,0,0,0,6,1,stimuli/black_4.jpg,,a,,,,,,,,
,,,,,,,,,,,,,sana,2,001,female,2021-09-23_12h26.40.487,openIAT,2020.1.0rc3,Linux aarch64,60,,0,0.346047263,-0.302068914,1,0,0,0.6627,button_right,0.6627,1,0,1,1,3,1,stimuli/white_2.jpg,,l,,,,,,,,
,,,,,,,,,,,,,sana,2,001,female,2021-09-23_12h26.40.487,openIAT,2020.1.0rc3,Linux aarch64,60,,0,-0.340961623,-0.372341712,1,0,0,0.5337,button_left,0.5337,1,0,2,2,0,1,stimuli/black_1.jpg,,a,,,,,,,,
,,,,,,,,,,,,,sana,2,001,female,2021-09-23_12h26.40.487,openIAT,2020.1.0rc3,Linux aarch64,60,,0,-0.347434118,-0.351075108,1,0,0,0.4839,button_left,0.4839,1,0,3,3,4,1,stimuli/black_3.jpg,,a,,,,,,,,
,,,,,,,,,,,,,sana,2,001,female,2021-09-23_12h26.40.487,openIAT,2020.1.0rc3,Linux aarch64,60,,0,-0.368700879,-0.331657632,1,0,0,0.6357,button_left,0.6357,1,0,4,4,8,1,stimuli/black_5.jpg,,a,,,,,,,,
,,,,,,,,,,,,,sana,2,001,female,2021-09-23_12h26.40.487,openIAT,2020.1.0rc3,Linux aarch64,60,,0,0.315533981,-0.336280601,1,0,0,1.3406,button_right,1.3406,1,0,5,5,5,1,stimuli/white_3.jpg,,l,,,,,,,,
,,,,,,,,,,,,,sana,2,001,female,2021-09-23_12h26.40.487,openIAT,2020.1.0rc3,Linux aarch64,60,,0,0.307212311,-0.3538488,1,0,0,0.6125,button_right,0.6125,1,0,6,6,9,1,stimuli/white_5.jpg,,l,,,,,,,,
,,,,,,,,,,,,,sana,2,001,female,2021-09-23_12h26.40.487,openIAT,2020.1.0rc3,Linux aarch64,60,,0,-0.361303746,-0.340903865,1,0,0,0.5686,button_left,0.5686,1,0,7,7,2,1,stimuli/black_2.jpg,,a,,,,,,,,
,,,,,,,,,,,,,sana,2,001,female,2021-09-23_12h26.40.487,openIAT,2020.1.0rc3,Linux aarch64,60,,0,0.338650009,-0.323335666,1,0,0,0.7715,button_right,0.7715,1,0,8,8,7,1,stimuli/white_4.jpg,,l,,,,,,,,
,,,,,,,,,,,,,sana,2,001,female,2021-09-23_12h26.40.487,openIAT,2020.1.0rc3,Linux aarch64,60,,0,0.350670379,-0.346451695,1,0,0,0.5569,button_right,0.5569,1,0,9,9,1,1,stimuli/white_1.jpg,,l,,,,,,,,
,,,,,,,,,,,,,sana,2,001,female,2021-09-23_12h26.40.487,openIAT,2020.1.0rc3,Linux aarch64,60,,,,,,,,,,,,,,,,,,,,0,1,1,1,1,incong_train.xlsx,"A = 
Black","L = 
White"
,,,,,,,,,,,,,sana,2,001,female,2021-09-23_12h26.40.487,openIAT,2020.1.0rc3,Linux aarch64,60,,0,-0.354831251,-0.340903865,1,0,0,0.9728,button_left,0.9728,1,0,0,0,6,1,stimuli/black_4.jpg,,a,,,,,,,,
,,,,,,,,,,,,,sana,2,001,female,2021-09-23_12h26.40.487,openIAT,2020.1.0rc3,Linux aarch64,60,,0,-0.338187708,-0.376964828,1,0,0,0.8135,button_left,0.8135,1,0,1,1,8,1,stimuli/black_5.jpg,,a,,,,,,,,
,,,,,,,,,,,,,sana,2,001,female,2021-09-23_12h26.40.487,openIAT,2020.1.0rc3,Linux aarch64,60,,0,-0.401987974,-0.305767467,1,0,0,2.1682,button_left,2.1682,1,0,2,2,18,1,stimuli/blank.png,Joy,a,,,,,,,,
,,,,,,,,,,,,,sana,2,001,female,2021-09-23_12h26.40.487,openIAT,2020.1.0rc3,Linux aarch64,60,,0,0.374711046,-0.288199267,1,0,0,0.7506,button_right,0.7506,1,0,3,3,15,1,stimuli/blank.png,Agony,l,,,,,,,,
,,,,,,,,,,,,,sana,2,001,female,2021-09-23_12h26.40.487,openIAT,2020.1.0rc3,Linux aarch64,60,,0,-0.422330097,-0.275254333,1,0,0,0.8373,button_left,0.8373,1,0,4,4,14,1,stimuli/blank.png,Pleasure,a,,,,,,,,
,,,,,,,,,,,,,sana,2,001,female,2021-09-23_12h26.40.487,openIAT,2020.1.0rc3,Linux aarch64,60,,0,0.366389302,-0.330732771,1,0,0,0.702,button_right,0.702,1,0,5,5,5,1,stimuli/white_3.jpg,,l,,,,,,,,
,,,,,,,,,,,,,sana,2,001,female,2021-09-23_12h26.40.487,openIAT,2020.1.0rc3,Linux aarch64,60,,0,-0.423254735,-0.27155578,1,0,0,0.6578,button_left,0.6578,1,0,6,6,12,1,stimuli/blank.png,Happy,a,,,,,,,,
,,,,,,,,,,,,,sana,2,001,female,2021-09-23_12h26.40.487,openIAT,2020.1.0rc3,Linux aarch64,60,,0,0.344197912,-0.347376407,1,0,0,1.3527,button_right,1.3527,1,0,7,7,7,1,stimuli/white_4.jpg,,l,,,,,,,,
,,,,,,,,,,,,,sana,2,001,female,2021-09-23_12h26.40.487,openIAT,2020.1.0rc3,Linux aarch64,60,,0,-0.417706888,-0.286349991,1,0,0,0.6342,button_left,0.6342,1,0,8,8,10,1,stimuli/blank.png,Good,a,,,,,,,,
,,,,,,,,,,,,,sana,2,001,female,2021-09-23_12h26.40.487,openIAT,2020.1.0rc3,Linux aarch64,60,,0,0.37748496,-0.301144202,1,0,0,0.8023,button_right,0.8023,1,0,9,9,3,1,stimuli/white_2.jpg,,l,,,,,,,,
,,,,,,,,,,,,,sana,2,001,female,2021-09-23_12h26.40.487,openIAT,2020.1.0rc3,Linux aarch64,60,,0,0.379334311,-0.288199267,1,0,0,0.6606,button_right,0.6606,1,0,10,10,1,1,stimuli/white_1.jpg,,l,,,,,,,,
,,,,,,,,,,,,,sana,2,001,female,2021-09-23_12h26.40.487,openIAT,2020.1.0rc3,Linux aarch64,60,,0,0.351595018,-0.334431324,1,0,0,0.7783,button_right,0.7783,1,0,11,11,13,1,stimuli/blank.png,Hurt,l,,,,,,,,
,,,,,,,,,,,,,sana,2,001,female,2021-09-23_12h26.40.487,openIAT,2020.1.0rc3,Linux aarch64,60,,0,0.354368932,-0.332582048,1,0,0,0.7095,button_right,0.7095,0,0,12,12,0,1,stimuli/black_1.jpg,,a,,,,,,,,
,,,,,,,,,,,,,sana,2,001,female,2021-09-23_12h26.40.487,openIAT,2020.1.0rc3,Linux aarch64,60,,0,-0.430651873,-0.276178897,1,0,0,0.6442,button_left,0.6442,1,0,13,13,2,1,stimuli/black_2.jpg,,a,,,,,,,,
,,,,,,,,,,,,,sana,2,001,female,2021-09-23_12h26.40.487,openIAT,2020.1.0rc3,Linux aarch64,60,,0,-0.444521497,-0.274329621,1,0,0,0.6418,button_left,0.6418,1,0,14,14,4,1,stimuli/black_3.jpg,,a,,,,,,,,
,,,,,,,,,,,,,sana,2,001,female,2021-09-23_12h26.40.487,openIAT,2020.1.0rc3,Linux aarch64,60,,0,0.35529357,-0.309466019,1,0,0,0.668,button_right,0.668,1,0,15,15,19,1,stimuli/blank.png,Nasty,l,,,,,,,,
,,,,,,,,,,,,,sana,2,001,female,2021-09-23_12h26.40.487,openIAT,2020.1.0rc3,Linux aarch64,60,,0,-0.414008316,-0.307616743,1,0,0,1.665,button_left,1.665,1,0,16,16,16,1,stimuli/blank.png,Love,a,,,,,,,,
,,,,,,,,,,,,,sana,2,001,female,2021-09-23_12h26.40.487,openIAT,2020.1.0rc3,Linux aarch64,60,,0,0.373786408,-0.301144202,1,0,0,0.6437,button_right,0.6437,1,0,17,17,11,1,stimuli/blank.png,Bad,l,,,,,,,,
,,,,,,,,,,,,,sana,2,001,female,2021-09-23_12h26.40.487,openIAT,2020.1.0rc3,Linux aarch64,60,,0,0.380258949,-0.280802162,1,0,0,0.5604,button_right,0.5604,1,0,18,18,17,1,stimuli/blank.png,Evil,l,,,,,,,,
,,,,,,,,,,,,,sana,2,001,female,2021-09-23_12h26.40.487,openIAT,2020.1.0rc3,Linux aarch64,60,,0,0.392279245,-0.27155578,1,0,0,0.6056,button_right,0.6056,1,0,19,19,9,1,stimuli/white_5.jpg,,l,,,,,,,,
,,,,,,,,,,,,,sana,2,001,female,2021-09-23_12h26.40.487,openIAT,2020.1.0rc3,Linux aarch64,60,,,,,,,,,,,,,,,,,,,,0,2,2,2,1,incong_test.xlsx,"A = 
Black or 
Positive","L = 
White or 
Negative"
,,,,,,,,,,,,,sana,2,001,female,2021-09-23_12h26.40.487,openIAT,2020.1.0rc3,Linux aarch64,60,,0,0.390429969,-0.284500715,1,0,0,2.2318,button_right,2.2318,1,0,0,0,0,1,stimuli/black_1.jpg,NaN,l,,,,,,,,
,,,,,,,,,,,,,sana,2,001,female,2021-09-23_12h26.40.487,openIAT,2020.1.0rc3,Linux aarch64,60,,0,0.368238579,-0.301144202,1,0,0,0.8459,button_right,0.8459,1,0,1,1,2,1,stimuli/black_2.jpg,NaN,l,,,,,,,,
,,,,,,,,,,,,,sana,2,001,female,2021-09-23_12h26.40.487,openIAT,2020.1.0rc3,Linux aarch64,60,,0,-0.406611183,-0.305767467,1,0,0,0.6926,button_left,0.6926,1,0,2,2,1,1,stimuli/white_1.jpg,NaN,a,,,,,,,,
,,,,,,,,,,,,,sana,2,001,female,2021-09-23_12h26.40.487,openIAT,2020.1.0rc3,Linux aarch64,60,,0,0.387656054,-0.288199267,1,0,0,0.9448,button_right,0.9448,1,0,3,3,6,1,stimuli/black_4.jpg,NaN,l,,,,,,,,
,,,,,,,,,,,,,sana,2,001,female,2021-09-23_12h26.40.487,openIAT,2020.1.0rc3,Linux aarch64,60,,0,-0.426028664,-0.267857228,1,0,0,0.5576,button_left,0.5576,1,0,4,4,9,1,stimuli/white_5.jpg,NaN,a,,,,,,,,
,,,,,,,,,,,,,sana,2,001,female,2021-09-23_12h26.40.487,openIAT,2020.1.0rc3,Linux aarch64,60,,0,-0.430651873,-0.283576151,1,0,0,1.1196,button_left,1.1196,1,0,5,5,7,1,stimuli/white_4.jpg,NaN,a,,,,,,,,
,,,,,,,,,,,,,sana,2,001,female,2021-09-23_12h26.40.487,openIAT,2020.1.0rc3,Linux aarch64,60,,0,0.371937131,-0.319637113,1,0,0,0.4306,button_right,0.4306,1,0,6,6,8,1,stimuli/black_5.jpg,NaN,l,,,,,,,,
,,,,,,,,,,,,,sana,2,001,female,2021-09-23_12h26.40.487,openIAT,2020.1.0rc3,Linux aarch64,60,,0,-0.358529813,-0.338129877,1,0,0,0.5933,button_left,0.5933,1,0,7,7,3,1,stimuli/white_2.jpg,NaN,a,,,,,,,,
,,,,,,,,,,,,,sana,2,001,female,2021-09-23_12h26.40.487,openIAT,2020.1.0rc3,Linux aarch64,60,,0,-0.422330097,-0.300219638,1,0,0,0.6281,button_left,0.6281,1,0,8,8,5,1,stimuli/white_3.jpg,NaN,a,,,,,,,,
,,,,,,,,,,,,,sana,2,001,female,2021-09-23_12h26.40.487,openIAT,2020.1.0rc3,Linux aarch64,60,,0,0.405224254,-0.295596373,1,0,0,0.5085,button_right,0.5085,1,0,9,9,4,1,stimuli/black_3.jpg,NaN,l,,,,,,,,
,,,,,,,,,,,,,sana,2,001,female,2021-09-23_12h26.40.487,openIAT,2020.1.0rc3,Linux aarch64,60,,,,,,,,,,,,,,,,,,,,0,3,3,3,1,cong_train.xlsx,"A = 
White","L = 
Black"
,,,,,,,,,,,,,sana,2,001,female,2021-09-23_12h26.40.487,openIAT,2020.1.0rc3,Linux aarch64,60,,0,0.406148892,-0.277103609,1,0,0,1.1497,button_right,1.1497,1,0,0,0,6,1,stimuli/black_4.jpg,NaN,l,,,,,,,,
,,,,,,,,,,,,,sana,2,001,female,2021-09-23_12h26.40.487,openIAT,2020.1.0rc3,Linux aarch64,60,,0,0.379334311,-0.316863125,1,0,0,1.0073,button_right,1.0073,1,0,1,1,0,1,stimuli/black_1.jpg,NaN,l,,,,,,,,
,,,,,,,,,,,,,sana,2,001,female,2021-09-23_12h26.40.487,openIAT,2020.1.0rc3,Linux aarch64,60,,0,0.415395274,-0.257686134,1,0,0,1.7026,button_right,1.7026,1,0,2,2,13,1,stimuli/blank.png,Hurt,l,,,,,,,,
,,,,,,,,,,,,,sana,2,001,female,2021-09-23_12h26.40.487,openIAT,2020.1.0rc3,Linux aarch64,60,,0,-0.446370782,-0.306692179,1,0,0,0.8803,button_left,0.8803,1,0,3,3,1,1,stimuli/white_1.jpg,NaN,a,,,,,,,,
,,,,,,,,,,,,,sana,2,001,female,2021-09-23_12h26.40.487,openIAT,2020.1.0rc3,Linux aarch64,60,,0,0.385806778,-0.327958931,1,0,0,1.1264,button_right,1.1264,1,0,4,4,19,1,stimuli/blank.png,Nasty,l,,,,,,,,
,,,,,,,,,,,,,sana,2,001,female,2021-09-23_12h26.40.487,openIAT,2020.1.0rc3,Linux aarch64,60,,0,0.394128522,-0.282651438,1,0,0,0.9557,button_right,0.9557,1,0,5,5,4,1,stimuli/black_3.jpg,NaN,l,,,,,,,,
,,,,,,,,,,,,,sana,2,001,female,2021-09-23_12h26.40.487,openIAT,2020.1.0rc3,Linux aarch64,60,,0,0.33310218,-0.36586917,1,0,0,0.7118,button_right,0.7118,1,0,6,6,8,1,stimuli/black_5.jpg,NaN,l,,,,,,,,
,,,,,,,,,,,,,sana,2,001,female,2021-09-23_12h26.40.487,openIAT,2020.1.0rc3,Linux aarch64,60,,0,-0.42140545,-0.27987745,1,0,0,0.6292,button_left,0.6292,1,0,7,7,18,1,stimuli/blank.png,Joy,a,,,,,,,,
,,,,,,,,,,,,,sana,2,001,female,2021-09-23_12h26.40.487,openIAT,2020.1.0rc3,Linux aarch64,60,,0,-0.431576511,-0.277103609,1,0,0,0.8295,button_left,0.8295,1,0,8,8,9,1,stimuli/white_5.jpg,NaN,a,,,,,,,,
,,,,,,,,,,,,,sana,2,001,female,2021-09-23_12h26.40.487,openIAT,2020.1.0rc3,Linux aarch64,60,,0,0.336800733,-0.386211358,1,0,0,0.695,button_right,0.695,1,0,9,9,17,1,stimuli/blank.png,Evil,l,,,,,,,,
,,,,,,,,,,,,,sana,2,001,female,2021-09-23_12h26.40.487,openIAT,2020.1.0rc3,Linux aarch64,60,,0,-0.43435044,-0.24751504,1,0,0,1.6999,button_left,1.6999,1,0,10,10,14,1,stimuli/blank.png,Pleasure,a,,,,,,,,
,,,,,,,,,,,,,sana,2,001,female,2021-09-23_12h26.40.487,openIAT,2020.1.0rc3,Linux aarch64,60,,0,-0.446370782,-0.266007951,1,0,0,1.0337,button_left,1.0337,1,0,11,11,5,1,stimuli/white_3.jpg,NaN,a,,,,,,,,
,,,,,,,,,,,,,sana,2,001,female,2021-09-23_12h26.40.487,openIAT,2020.1.0rc3,Linux aarch64,60,,0,-0.435275078,-0.251213592,1,0,0,0.6779,button_left,0.6779,1,0,12,12,7,1,stimuli/white_4.jpg,NaN,a,,,,,,,,
,,,,,,,,,,,,,sana,2,001,female,2021-09-23_12h26.40.487,openIAT,2020.1.0rc3,Linux aarch64,60,,0,0.358992123,-0.336280601,1,0,0,0.6533,button_right,0.6533,1,0,13,13,15,1,stimuli/blank.png,Agony,l,,,,,,,,
,,,,,,,,,,,,,sana,2,001,female,2021-09-23_12h26.40.487,openIAT,2020.1.0rc3,Linux aarch64,60,,0,-0.428802587,-0.253987581,1,0,0,0.7319,button_left,0.7319,1,0,14,14,12,1,stimuli/blank.png,Happy,a,,,,,,,,
,,,,,,,,,,,,,sana,2,001,female,2021-09-23_12h26.40.487,openIAT,2020.1.0rc3,Linux aarch64,60,,0,0.314609342,-0.366793882,1,0,0,0.6254,button_right,0.6254,1,0,15,15,11,1,stimuli/blank.png,Bad,l,,,,,,,,
,,,,,,,,,,,,,sana,2,001,female,2021-09-23_12h26.40.487,openIAT,2020.1.0rc3,Linux aarch64,60,,0,-0.425104021,-0.255836857,1,0,0,0.7946,button_left,0.7946,1,0,16,16,10,1,stimuli/blank.png,Good,a,,,,,,,,
,,,,,,,,,,,,,sana,2,001,female,2021-09-23_12h26.40.487,openIAT,2020.1.0rc3,Linux aarch64,60,,0,0.334951456,-0.338129877,1,0,0,1.6045,button_right,1.6045,1,0,17,17,2,1,stimuli/black_2.jpg,NaN,l,,,,,,,,
,,,,,,,,,,,,,sana,2,001,female,2021-09-23_12h26.40.487,openIAT,2020.1.0rc3,Linux aarch64,60,,0,-0.433425797,-0.253987581,1,0,0,0.7023,button_left,0.7023,1,0,18,18,3,1,stimuli/white_2.jpg,NaN,a,,,,,,,,
,,,,,,,,,,,,,sana,2,001,female,2021-09-23_12h26.40.487,openIAT,2020.1.0rc3,Linux aarch64,60,,0,-0.42972723,-0.24196721,1,0,0,1.1169,button_left,1.1169,1,0,19,19,16,1,stimuli/blank.png,Love,a,,,,,,,,
