instr_done_touch.x,instr_done_touch.y,instr_done_touch.leftButton,instr_done_touch.midButton,instr_done_touch.rightButton,instr_done_touch.clicked_name,instruct_pages.thisRepN,instruct_pages.thisTrialN,instruct_pages.thisN,instruct_pages.thisIndex,instruct_pages.ran,pageN,instruct_text,participant,order,session,gender,date,expName,psychopyVersion,OS,frameRate,key_resp.keys,key_resp.corr,key_resp.rt,touch_resp.x,touch_resp.y,touch_resp.leftButton,touch_resp.midButton,touch_resp.rightButton,touch_resp.time,touch_resp.clicked_name,rt,corr,trials.thisRepN,trials.thisTrialN,trials.thisN,trials.thisIndex,trials.ran,stimImage,stimWord,CorrAns,blocks.thisRepN,blocks.thisTrialN,blocks.thisN,blocks.thisIndex,blocks.ran,conds_file,label_left,label_right
0.033082886,-0.411511841,1,0,0,instr_done_button,0,0,0,0,1,1,"You will be presented with words or images to classify into categories using either the 'A' or 'L' key. 
 
Try to go as fast as possible while making as few mistakes as possible. 
",sck,1,001,female,2023-06-13_16h53.48.666,openIAT,2020.1.0rc3,MacIntel,60,,,,,,,,,,,,,,,,,,,,,,,,,,,,
0.026567586,-0.398132595,1,0,0,instr_done_button,0,1,1,1,1,2,"Keep in mind: 
 
1) Labels at the top of the screen indicate which catogory goes with which key. 
 
2) Each word or image has a correct catogory classification 
 
3) Keep your index fingers on the A and L keys to enable a rapid response. 
 
4) The test gives no results if you go slow- please try to go as fast as possible 
",sck,1,001,female,2023-06-13_16h53.48.666,openIAT,2020.1.0rc3,MacIntel,60,,,,,,,,,,,,,,,,,,,,,,,,,,,,
,,,,,,,,,,,,,sck,1,001,female,2023-06-13_16h53.48.666,openIAT,2020.1.0rc3,MacIntel,60,l,1,2.2305,,,,,,,,2.2305,1,0,0,0,7,1,stimuli/blank.png,Evil,l,,,,,,,,
,,,,,,,,,,,,,sck,1,001,female,2023-06-13_16h53.48.666,openIAT,2020.1.0rc3,MacIntel,60,a,1,1.433,,,,,,,,1.433,1,0,1,1,0,1,stimuli/blank.png,Good,a,,,,,,,,
,,,,,,,,,,,,,sck,1,001,female,2023-06-13_16h53.48.666,openIAT,2020.1.0rc3,MacIntel,60,l,1,1.068,,,,,,,,1.068,1,0,2,2,5,1,stimuli/blank.png,Agony,l,,,,,,,,
,,,,,,,,,,,,,sck,1,001,female,2023-06-13_16h53.48.666,openIAT,2020.1.0rc3,MacIntel,60,a,1,0.9093,,,,,,,,0.9093,1,0,3,3,4,1,stimuli/blank.png,Pleasure,a,,,,,,,,
,,,,,,,,,,,,,sck,1,001,female,2023-06-13_16h53.48.666,openIAT,2020.1.0rc3,MacIntel,60,a,1,0.7488,,,,,,,,0.7488,1,0,4,4,8,1,stimuli/blank.png,Joy,a,,,,,,,,
,,,,,,,,,,,,,sck,1,001,female,2023-06-13_16h53.48.666,openIAT,2020.1.0rc3,MacIntel,60,a,1,0.7585,,,,,,,,0.7585,1,0,5,5,2,1,stimuli/blank.png,Happy,a,,,,,,,,
,,,,,,,,,,,,,sck,1,001,female,2023-06-13_16h53.48.666,openIAT,2020.1.0rc3,MacIntel,60,l,1,0.7504,,,,,,,,0.7504,1,0,6,6,9,1,stimuli/blank.png,Nasty,l,,,,,,,,
,,,,,,,,,,,,,sck,1,001,female,2023-06-13_16h53.48.666,openIAT,2020.1.0rc3,MacIntel,60,l,1,0.7303,,,,,,,,0.7303,1,0,7,7,3,1,stimuli/blank.png,Hurt,l,,,,,,,,
,,,,,,,,,,,,,sck,1,001,female,2023-06-13_16h53.48.666,openIAT,2020.1.0rc3,MacIntel,60,l,1,0.6322,,,,,,,,0.6322,1,0,8,8,1,1,stimuli/blank.png,Bad,l,,,,,,,,
,,,,,,,,,,,,,sck,1,001,female,2023-06-13_16h53.48.666,openIAT,2020.1.0rc3,MacIntel,60,a,1,0.8458,,,,,,,,0.8458,1,0,9,9,6,1,stimuli/blank.png,Love,a,,,,,,,,
,,,,,,,,,,,,,sck,1,001,female,2023-06-13_16h53.48.666,openIAT,2020.1.0rc3,MacIntel,60,,,,,,,,,,,,,,,,,,,,,0,0,0,0,1,pos_neg_train.xlsx,"A = 
Positive","L = 
Negative"
,,,,,,,,,,,,,sck,1,001,female,2023-06-13_16h53.48.666,openIAT,2020.1.0rc3,MacIntel,60,a,1,2.6132,,,,,,,,2.6132,1,0,0,0,1,1,stimuli/white_1.jpg,NaN,a,,,,,,,,
,,,,,,,,,,,,,sck,1,001,female,2023-06-13_16h53.48.666,openIAT,2020.1.0rc3,MacIntel,60,l,1,1.3962,,,,,,,,1.3962,1,0,1,1,6,1,stimuli/black_4.jpg,NaN,l,,,,,,,,
,,,,,,,,,,,,,sck,1,001,female,2023-06-13_16h53.48.666,openIAT,2020.1.0rc3,MacIntel,60,l,1,0.8493,,,,,,,,0.8493,1,0,2,2,2,1,stimuli/black_2.jpg,NaN,l,,,,,,,,
,,,,,,,,,,,,,sck,1,001,female,2023-06-13_16h53.48.666,openIAT,2020.1.0rc3,MacIntel,60,l,1,0.7247,,,,,,,,0.7247,1,0,3,3,8,1,stimuli/black_5.jpg,NaN,l,,,,,,,,
,,,,,,,,,,,,,sck,1,001,female,2023-06-13_16h53.48.666,openIAT,2020.1.0rc3,MacIntel,60,a,1,2.5156,,,,,,,,2.5156,1,0,4,4,9,1,stimuli/white_5.jpg,NaN,a,,,,,,,,
,,,,,,,,,,,,,sck,1,001,female,2023-06-13_16h53.48.666,openIAT,2020.1.0rc3,MacIntel,60,l,1,0.9099,,,,,,,,0.9099,1,0,5,5,0,1,stimuli/black_1.jpg,NaN,l,,,,,,,,
,,,,,,,,,,,,,sck,1,001,female,2023-06-13_16h53.48.666,openIAT,2020.1.0rc3,MacIntel,60,a,1,1.765,,,,,,,,1.765,1,0,6,6,7,1,stimuli/white_4.jpg,NaN,a,,,,,,,,
,,,,,,,,,,,,,sck,1,001,female,2023-06-13_16h53.48.666,openIAT,2020.1.0rc3,MacIntel,60,a,1,2.2316,,,,,,,,2.2316,1,0,7,7,5,1,stimuli/white_3.jpg,NaN,a,,,,,,,,
,,,,,,,,,,,,,sck,1,001,female,2023-06-13_16h53.48.666,openIAT,2020.1.0rc3,MacIntel,60,l,1,0.7227,,,,,,,,0.7227,1,0,8,8,4,1,stimuli/black_3.jpg,NaN,l,,,,,,,,
,,,,,,,,,,,,,sck,1,001,female,2023-06-13_16h53.48.666,openIAT,2020.1.0rc3,MacIntel,60,a,1,0.9392,,,,,,,,0.9392,1,0,9,9,3,1,stimuli/white_2.jpg,NaN,a,,,,,,,,
,,,,,,,,,,,,,sck,1,001,female,2023-06-13_16h53.48.666,openIAT,2020.1.0rc3,MacIntel,60,,,,,,,,,,,,,,,,,,,,,0,1,1,1,1,cong_train.xlsx,"A = 
White","L = 
Black"
,,,,,,,,,,,,,sck,1,001,female,2023-06-13_16h53.48.666,openIAT,2020.1.0rc3,MacIntel,60,l,1,2.4402,,,,,,,,2.4402,1,0,0,0,2,1,stimuli/black_2.jpg,NaN,l,,,,,,,,
,,,,,,,,,,,,,sck,1,001,female,2023-06-13_16h53.48.666,openIAT,2020.1.0rc3,MacIntel,60,l,1,1.7289,,,,,,,,1.7289,1,0,1,1,15,1,stimuli/blank.png,Agony,l,,,,,,,,
,,,,,,,,,,,,,sck,1,001,female,2023-06-13_16h53.48.666,openIAT,2020.1.0rc3,MacIntel,60,a,1,1.0314,,,,,,,,1.0314,1,0,2,2,18,1,stimuli/blank.png,Joy,a,,,,,,,,
,,,,,,,,,,,,,sck,1,001,female,2023-06-13_16h53.48.666,openIAT,2020.1.0rc3,MacIntel,60,a,1,0.7562,,,,,,,,0.7562,1,0,3,3,14,1,stimuli/blank.png,Pleasure,a,,,,,,,,
,,,,,,,,,,,,,sck,1,001,female,2023-06-13_16h53.48.666,openIAT,2020.1.0rc3,MacIntel,60,a,1,0.8146,,,,,,,,0.8146,1,0,4,4,16,1,stimuli/blank.png,Love,a,,,,,,,,
,,,,,,,,,,,,,sck,1,001,female,2023-06-13_16h53.48.666,openIAT,2020.1.0rc3,MacIntel,60,a,1,1.2169,,,,,,,,1.2169,1,0,5,5,3,1,stimuli/white_2.jpg,NaN,a,,,,,,,,
,,,,,,,,,,,,,sck,1,001,female,2023-06-13_16h53.48.666,openIAT,2020.1.0rc3,MacIntel,60,l,1,0.9062,,,,,,,,0.9062,1,0,6,6,0,1,stimuli/black_1.jpg,NaN,l,,,,,,,,
,,,,,,,,,,,,,sck,1,001,female,2023-06-13_16h53.48.666,openIAT,2020.1.0rc3,MacIntel,60,a,1,0.9884,,,,,,,,0.9884,1,0,7,7,5,1,stimuli/white_3.jpg,NaN,a,,,,,,,,
,,,,,,,,,,,,,sck,1,001,female,2023-06-13_16h53.48.666,openIAT,2020.1.0rc3,MacIntel,60,l,1,1.1604,,,,,,,,1.1604,1,0,8,8,4,1,stimuli/black_3.jpg,NaN,l,,,,,,,,
,,,,,,,,,,,,,sck,1,001,female,2023-06-13_16h53.48.666,openIAT,2020.1.0rc3,MacIntel,60,l,1,1.0927,,,,,,,,1.0927,1,0,9,9,11,1,stimuli/blank.png,Bad,l,,,,,,,,
,,,,,,,,,,,,,sck,1,001,female,2023-06-13_16h53.48.666,openIAT,2020.1.0rc3,MacIntel,60,a,1,0.8252,,,,,,,,0.8252,1,0,10,10,10,1,stimuli/blank.png,Good,a,,,,,,,,
,,,,,,,,,,,,,sck,1,001,female,2023-06-13_16h53.48.666,openIAT,2020.1.0rc3,MacIntel,60,l,1,0.9556,,,,,,,,0.9556,1,0,11,11,19,1,stimuli/blank.png,Nasty,l,,,,,,,,
,,,,,,,,,,,,,sck,1,001,female,2023-06-13_16h53.48.666,openIAT,2020.1.0rc3,MacIntel,60,a,1,0.9327,,,,,,,,0.9327,1,0,12,12,9,1,stimuli/white_5.jpg,NaN,a,,,,,,,,
,,,,,,,,,,,,,sck,1,001,female,2023-06-13_16h53.48.666,openIAT,2020.1.0rc3,MacIntel,60,a,1,1.098,,,,,,,,1.098,1,0,13,13,12,1,stimuli/blank.png,Happy,a,,,,,,,,
,,,,,,,,,,,,,sck,1,001,female,2023-06-13_16h53.48.666,openIAT,2020.1.0rc3,MacIntel,60,a,1,1.2512,,,,,,,,1.2512,1,0,14,14,1,1,stimuli/white_1.jpg,NaN,a,,,,,,,,
,,,,,,,,,,,,,sck,1,001,female,2023-06-13_16h53.48.666,openIAT,2020.1.0rc3,MacIntel,60,l,1,0.9301,,,,,,,,0.9301,1,0,15,15,13,1,stimuli/blank.png,Hurt,l,,,,,,,,
,,,,,,,,,,,,,sck,1,001,female,2023-06-13_16h53.48.666,openIAT,2020.1.0rc3,MacIntel,60,a,1,0.9054,,,,,,,,0.9054,1,0,16,16,7,1,stimuli/white_4.jpg,NaN,a,,,,,,,,
,,,,,,,,,,,,,sck,1,001,female,2023-06-13_16h53.48.666,openIAT,2020.1.0rc3,MacIntel,60,l,1,0.8966,,,,,,,,0.8966,1,0,17,17,17,1,stimuli/blank.png,Evil,l,,,,,,,,
,,,,,,,,,,,,,sck,1,001,female,2023-06-13_16h53.48.666,openIAT,2020.1.0rc3,MacIntel,60,l,1,0.9671,,,,,,,,0.9671,1,0,18,18,6,1,stimuli/black_4.jpg,NaN,l,,,,,,,,
,,,,,,,,,,,,,sck,1,001,female,2023-06-13_16h53.48.666,openIAT,2020.1.0rc3,MacIntel,60,l,1,0.6288,,,,,,,,0.6288,1,0,19,19,8,1,stimuli/black_5.jpg,NaN,l,,,,,,,,
,,,,,,,,,,,,,sck,1,001,female,2023-06-13_16h53.48.666,openIAT,2020.1.0rc3,MacIntel,60,,,,,,,,,,,,,,,,,,,,,0,2,2,2,1,cong_test.xlsx,"A = 
White or 
Positive","L = 
Black or 
Negative"
,,,,,,,,,,,,,sck,1,001,female,2023-06-13_16h53.48.666,openIAT,2020.1.0rc3,MacIntel,60,a,1,1.1128,,,,,,,,1.1128,1,0,0,0,4,1,stimuli/black_3.jpg,,a,,,,,,,,
,,,,,,,,,,,,,sck,1,001,female,2023-06-13_16h53.48.666,openIAT,2020.1.0rc3,MacIntel,60,l,1,0.8483,,,,,,,,0.8483,1,0,1,1,3,1,stimuli/white_2.jpg,,l,,,,,,,,
,,,,,,,,,,,,,sck,1,001,female,2023-06-13_16h53.48.666,openIAT,2020.1.0rc3,MacIntel,60,l,1,1.4487,,,,,,,,1.4487,1,0,2,2,7,1,stimuli/white_4.jpg,,l,,,,,,,,
,,,,,,,,,,,,,sck,1,001,female,2023-06-13_16h53.48.666,openIAT,2020.1.0rc3,MacIntel,60,l,1,0.7425,,,,,,,,0.7425,1,0,3,3,5,1,stimuli/white_3.jpg,,l,,,,,,,,
,,,,,,,,,,,,,sck,1,001,female,2023-06-13_16h53.48.666,openIAT,2020.1.0rc3,MacIntel,60,a,1,0.7636,,,,,,,,0.7636,1,0,4,4,6,1,stimuli/black_4.jpg,,a,,,,,,,,
,,,,,,,,,,,,,sck,1,001,female,2023-06-13_16h53.48.666,openIAT,2020.1.0rc3,MacIntel,60,l,1,0.7575,,,,,,,,0.7575,1,0,5,5,9,1,stimuli/white_5.jpg,,l,,,,,,,,
,,,,,,,,,,,,,sck,1,001,female,2023-06-13_16h53.48.666,openIAT,2020.1.0rc3,MacIntel,60,a,1,0.6327,,,,,,,,0.6327,1,0,6,6,8,1,stimuli/black_5.jpg,,a,,,,,,,,
,,,,,,,,,,,,,sck,1,001,female,2023-06-13_16h53.48.666,openIAT,2020.1.0rc3,MacIntel,60,l,0,0.9349,,,,,,,,0.9349,0,0,7,7,0,1,stimuli/black_1.jpg,,a,,,,,,,,
,,,,,,,,,,,,,sck,1,001,female,2023-06-13_16h53.48.666,openIAT,2020.1.0rc3,MacIntel,60,a,1,1.4982,,,,,,,,1.4982,1,0,8,8,2,1,stimuli/black_2.jpg,,a,,,,,,,,
,,,,,,,,,,,,,sck,1,001,female,2023-06-13_16h53.48.666,openIAT,2020.1.0rc3,MacIntel,60,l,1,0.8334,,,,,,,,0.8334,1,0,9,9,1,1,stimuli/white_1.jpg,,l,,,,,,,,
,,,,,,,,,,,,,sck,1,001,female,2023-06-13_16h53.48.666,openIAT,2020.1.0rc3,MacIntel,60,,,,,,,,,,,,,,,,,,,,,0,3,3,3,1,incong_train.xlsx,"A = 
Black","L = 
White"
,,,,,,,,,,,,,sck,1,001,female,2023-06-13_16h53.48.666,openIAT,2020.1.0rc3,MacIntel,60,l,1,2.6089,,,,,,,,2.6089,1,0,0,0,15,1,stimuli/blank.png,Agony,l,,,,,,,,
,,,,,,,,,,,,,sck,1,001,female,2023-06-13_16h53.48.666,openIAT,2020.1.0rc3,MacIntel,60,a,1,0.9601,,,,,,,,0.9601,1,0,1,1,12,1,stimuli/blank.png,Happy,a,,,,,,,,
,,,,,,,,,,,,,sck,1,001,female,2023-06-13_16h53.48.666,openIAT,2020.1.0rc3,MacIntel,60,l,1,1.1389,,,,,,,,1.1389,1,0,2,2,3,1,stimuli/white_2.jpg,,l,,,,,,,,
,,,,,,,,,,,,,sck,1,001,female,2023-06-13_16h53.48.666,openIAT,2020.1.0rc3,MacIntel,60,a,1,1.616,,,,,,,,1.616,1,0,3,3,16,1,stimuli/blank.png,Love,a,,,,,,,,
,,,,,,,,,,,,,sck,1,001,female,2023-06-13_16h53.48.666,openIAT,2020.1.0rc3,MacIntel,60,l,1,1.068,,,,,,,,1.068,1,0,4,4,11,1,stimuli/blank.png,Bad,l,,,,,,,,
,,,,,,,,,,,,,sck,1,001,female,2023-06-13_16h53.48.666,openIAT,2020.1.0rc3,MacIntel,60,a,1,0.9366,,,,,,,,0.9366,1,0,5,5,0,1,stimuli/black_1.jpg,,a,,,,,,,,
,,,,,,,,,,,,,sck,1,001,female,2023-06-13_16h53.48.666,openIAT,2020.1.0rc3,MacIntel,60,l,1,0.9551,,,,,,,,0.9551,1,0,6,6,19,1,stimuli/blank.png,Nasty,l,,,,,,,,
,,,,,,,,,,,,,sck,1,001,female,2023-06-13_16h53.48.666,openIAT,2020.1.0rc3,MacIntel,60,l,1,1.3088,,,,,,,,1.3088,1,0,7,7,1,1,stimuli/white_1.jpg,,l,,,,,,,,
,,,,,,,,,,,,,sck,1,001,female,2023-06-13_16h53.48.666,openIAT,2020.1.0rc3,MacIntel,60,a,1,0.7769,,,,,,,,0.7769,1,0,8,8,4,1,stimuli/black_3.jpg,,a,,,,,,,,
,,,,,,,,,,,,,sck,1,001,female,2023-06-13_16h53.48.666,openIAT,2020.1.0rc3,MacIntel,60,a,1,0.7456,,,,,,,,0.7456,1,0,9,9,6,1,stimuli/black_4.jpg,,a,,,,,,,,
,,,,,,,,,,,,,sck,1,001,female,2023-06-13_16h53.48.666,openIAT,2020.1.0rc3,MacIntel,60,l,1,0.7385,,,,,,,,0.7385,1,0,10,10,7,1,stimuli/white_4.jpg,,l,,,,,,,,
,,,,,,,,,,,,,sck,1,001,female,2023-06-13_16h53.48.666,openIAT,2020.1.0rc3,MacIntel,60,l,1,1.3798,,,,,,,,1.3798,1,0,11,11,9,1,stimuli/white_5.jpg,,l,,,,,,,,
,,,,,,,,,,,,,sck,1,001,female,2023-06-13_16h53.48.666,openIAT,2020.1.0rc3,MacIntel,60,l,1,0.9464,,,,,,,,0.9464,1,0,12,12,17,1,stimuli/blank.png,Evil,l,,,,,,,,
,,,,,,,,,,,,,sck,1,001,female,2023-06-13_16h53.48.666,openIAT,2020.1.0rc3,MacIntel,60,l,1,0.6094,,,,,,,,0.6094,1,0,13,13,13,1,stimuli/blank.png,Hurt,l,,,,,,,,
,,,,,,,,,,,,,sck,1,001,female,2023-06-13_16h53.48.666,openIAT,2020.1.0rc3,MacIntel,60,a,1,0.7747,,,,,,,,0.7747,1,0,14,14,8,1,stimuli/black_5.jpg,,a,,,,,,,,
,,,,,,,,,,,,,sck,1,001,female,2023-06-13_16h53.48.666,openIAT,2020.1.0rc3,MacIntel,60,a,1,0.8743,,,,,,,,0.8743,1,0,15,15,2,1,stimuli/black_2.jpg,,a,,,,,,,,
,,,,,,,,,,,,,sck,1,001,female,2023-06-13_16h53.48.666,openIAT,2020.1.0rc3,MacIntel,60,l,0,0.805,,,,,,,,0.805,0,0,16,16,18,1,stimuli/blank.png,Joy,a,,,,,,,,
,,,,,,,,,,,,,sck,1,001,female,2023-06-13_16h53.48.666,openIAT,2020.1.0rc3,MacIntel,60,a,1,1.1067,,,,,,,,1.1067,1,0,17,17,14,1,stimuli/blank.png,Pleasure,a,,,,,,,,
,,,,,,,,,,,,,sck,1,001,female,2023-06-13_16h53.48.666,openIAT,2020.1.0rc3,MacIntel,60,l,1,1.2999,,,,,,,,1.2999,1,0,18,18,5,1,stimuli/white_3.jpg,,l,,,,,,,,
,,,,,,,,,,,,,sck,1,001,female,2023-06-13_16h53.48.666,openIAT,2020.1.0rc3,MacIntel,60,a,1,1.0878,,,,,,,,1.0878,1,0,19,19,10,1,stimuli/blank.png,Good,a,,,,,,,,
