instr_done_touch.x,instr_done_touch.y,instr_done_touch.leftButton,instr_done_touch.midButton,instr_done_touch.rightButton,instr_done_touch.clicked_name,instruct_pages.thisRepN,instruct_pages.thisTrialN,instruct_pages.thisN,instruct_pages.thisIndex,instruct_pages.ran,pageN,instruct_text,participant,order,session,gender,date,expName,psychopyVersion,OS,frameRate,key_resp.keys,key_resp.corr,key_resp.rt,touch_resp.x,touch_resp.y,touch_resp.leftButton,touch_resp.midButton,touch_resp.rightButton,touch_resp.time,touch_resp.clicked_name,rt,corr,trials.thisRepN,trials.thisTrialN,trials.thisN,trials.thisIndex,trials.ran,stimImage,stimWord,CorrAns,blocks.thisRepN,blocks.thisTrialN,blocks.thisN,blocks.thisIndex,blocks.ran,conds_file,label_left,label_right
0.055555556,-0.391666667,1,0,0,instr_done_button,0,0,0,0,1,1,"You will be presented with words or images to classify into categories using either the 'A' or 'L' key. 
 
Try to go as fast as possible while making as few mistakes as possible. 
",simone,1,001,female,2023-04-10_11h37.43.953,openIAT,2020.1.0rc3,Win32,60,,,,,,,,,,,,,,,,,,,,,,,,,,,,
-0.012962963,-0.374074074,1,0,0,instr_done_button,0,1,1,1,1,2,"Keep in mind: 
 
1) Labels at the top of the screen indicate which catogory goes with which key. 
 
2) Each word or image has a correct catogory classification 
 
3) Keep your index fingers on the A and L keys to enable a rapid response. 
 
4) The test gives no results if you go slow- please try to go as fast as possible 
",simone,1,001,female,2023-04-10_11h37.43.953,openIAT,2020.1.0rc3,Win32,60,,,,,,,,,,,,,,,,,,,,,,,,,,,,
,,,,,,,,,,,,,simone,1,001,female,2023-04-10_11h37.43.953,openIAT,2020.1.0rc3,Win32,60,a,1,1.9542,,,,,,,,1.9542,1,0,0,0,4,1,stimuli/blank.png,Pleasure,a,,,,,,,,
,,,,,,,,,,,,,simone,1,001,female,2023-04-10_11h37.43.953,openIAT,2020.1.0rc3,Win32,60,a,1,1.281,,,,,,,,1.281,1,0,1,1,2,1,stimuli/blank.png,Happy,a,,,,,,,,
,,,,,,,,,,,,,simone,1,001,female,2023-04-10_11h37.43.953,openIAT,2020.1.0rc3,Win32,60,a,1,1.0349,,,,,,,,1.0349,1,0,2,2,6,1,stimuli/blank.png,Love,a,,,,,,,,
,,,,,,,,,,,,,simone,1,001,female,2023-04-10_11h37.43.953,openIAT,2020.1.0rc3,Win32,60,a,1,1.0797,,,,,,,,1.0797,1,0,3,3,0,1,stimuli/blank.png,Good,a,,,,,,,,
,,,,,,,,,,,,,simone,1,001,female,2023-04-10_11h37.43.953,openIAT,2020.1.0rc3,Win32,60,a,1,0.8196,,,,,,,,0.8196,1,0,4,4,8,1,stimuli/blank.png,Joy,a,,,,,,,,
,,,,,,,,,,,,,simone,1,001,female,2023-04-10_11h37.43.953,openIAT,2020.1.0rc3,Win32,60,l,1,0.9557,,,,,,,,0.9557,1,0,5,5,5,1,stimuli/blank.png,Agony,l,,,,,,,,
,,,,,,,,,,,,,simone,1,001,female,2023-04-10_11h37.43.953,openIAT,2020.1.0rc3,Win32,60,l,1,0.6965,,,,,,,,0.6965,1,0,6,6,3,1,stimuli/blank.png,Hurt,l,,,,,,,,
,,,,,,,,,,,,,simone,1,001,female,2023-04-10_11h37.43.953,openIAT,2020.1.0rc3,Win32,60,l,1,0.7131,,,,,,,,0.7131,1,0,7,7,7,1,stimuli/blank.png,Evil,l,,,,,,,,
,,,,,,,,,,,,,simone,1,001,female,2023-04-10_11h37.43.953,openIAT,2020.1.0rc3,Win32,60,l,1,0.6166,,,,,,,,0.6166,1,0,8,8,9,1,stimuli/blank.png,Nasty,l,,,,,,,,
,,,,,,,,,,,,,simone,1,001,female,2023-04-10_11h37.43.953,openIAT,2020.1.0rc3,Win32,60,l,1,1.3311,,,,,,,,1.3311,1,0,9,9,1,1,stimuli/blank.png,Bad,l,,,,,,,,
,,,,,,,,,,,,,simone,1,001,female,2023-04-10_11h37.43.953,openIAT,2020.1.0rc3,Win32,60,,,,,,,,,,,,,,,,,,,,,0,0,0,0,1,pos_neg_train.xlsx,"A = 
Positive","L = 
Negative"
,,,,,,,,,,,,,simone,1,001,female,2023-04-10_11h37.43.953,openIAT,2020.1.0rc3,Win32,60,a,1,2.2492,,,,,,,,2.2492,1,0,0,0,3,1,stimuli/white_2.jpg,NaN,a,,,,,,,,
,,,,,,,,,,,,,simone,1,001,female,2023-04-10_11h37.43.953,openIAT,2020.1.0rc3,Win32,60,l,1,1.1156,,,,,,,,1.1156,1,0,1,1,4,1,stimuli/black_3.jpg,NaN,l,,,,,,,,
,,,,,,,,,,,,,simone,1,001,female,2023-04-10_11h37.43.953,openIAT,2020.1.0rc3,Win32,60,l,1,0.8294,,,,,,,,0.8294,1,0,2,2,8,1,stimuli/black_5.jpg,NaN,l,,,,,,,,
,,,,,,,,,,,,,simone,1,001,female,2023-04-10_11h37.43.953,openIAT,2020.1.0rc3,Win32,60,l,1,1.7568,,,,,,,,1.7568,1,0,3,3,2,1,stimuli/black_2.jpg,NaN,l,,,,,,,,
,,,,,,,,,,,,,simone,1,001,female,2023-04-10_11h37.43.953,openIAT,2020.1.0rc3,Win32,60,a,1,1.8837,,,,,,,,1.8837,1,0,4,4,9,1,stimuli/white_5.jpg,NaN,a,,,,,,,,
,,,,,,,,,,,,,simone,1,001,female,2023-04-10_11h37.43.953,openIAT,2020.1.0rc3,Win32,60,a,1,0.8254,,,,,,,,0.8254,1,0,5,5,1,1,stimuli/white_1.jpg,NaN,a,,,,,,,,
,,,,,,,,,,,,,simone,1,001,female,2023-04-10_11h37.43.953,openIAT,2020.1.0rc3,Win32,60,a,1,1.156,,,,,,,,1.156,1,0,6,6,5,1,stimuli/white_3.jpg,NaN,a,,,,,,,,
,,,,,,,,,,,,,simone,1,001,female,2023-04-10_11h37.43.953,openIAT,2020.1.0rc3,Win32,60,a,1,0.7931,,,,,,,,0.7931,1,0,7,7,7,1,stimuli/white_4.jpg,NaN,a,,,,,,,,
,,,,,,,,,,,,,simone,1,001,female,2023-04-10_11h37.43.953,openIAT,2020.1.0rc3,Win32,60,l,1,1.0364,,,,,,,,1.0364,1,0,8,8,0,1,stimuli/black_1.jpg,NaN,l,,,,,,,,
,,,,,,,,,,,,,simone,1,001,female,2023-04-10_11h37.43.953,openIAT,2020.1.0rc3,Win32,60,l,1,0.7457,,,,,,,,0.7457,1,0,9,9,6,1,stimuli/black_4.jpg,NaN,l,,,,,,,,
,,,,,,,,,,,,,simone,1,001,female,2023-04-10_11h37.43.953,openIAT,2020.1.0rc3,Win32,60,,,,,,,,,,,,,,,,,,,,,0,1,1,1,1,cong_train.xlsx,"A = 
White","L = 
Black"
,,,,,,,,,,,,,simone,1,001,female,2023-04-10_11h37.43.953,openIAT,2020.1.0rc3,Win32,60,a,1,2.7997,,,,,,,,2.7997,1,0,0,0,7,1,stimuli/white_4.jpg,NaN,a,,,,,,,,
,,,,,,,,,,,,,simone,1,001,female,2023-04-10_11h37.43.953,openIAT,2020.1.0rc3,Win32,60,l,1,1.8788,,,,,,,,1.8788,1,0,1,1,19,1,stimuli/blank.png,Nasty,l,,,,,,,,
,,,,,,,,,,,,,simone,1,001,female,2023-04-10_11h37.43.953,openIAT,2020.1.0rc3,Win32,60,a,1,1.8075,,,,,,,,1.8075,1,0,2,2,9,1,stimuli/white_5.jpg,NaN,a,,,,,,,,
,,,,,,,,,,,,,simone,1,001,female,2023-04-10_11h37.43.953,openIAT,2020.1.0rc3,Win32,60,l,1,1.2069,,,,,,,,1.2069,1,0,3,3,2,1,stimuli/black_2.jpg,NaN,l,,,,,,,,
,,,,,,,,,,,,,simone,1,001,female,2023-04-10_11h37.43.953,openIAT,2020.1.0rc3,Win32,60,a,1,1.5664,,,,,,,,1.5664,1,0,4,4,3,1,stimuli/white_2.jpg,NaN,a,,,,,,,,
,,,,,,,,,,,,,simone,1,001,female,2023-04-10_11h37.43.953,openIAT,2020.1.0rc3,Win32,60,a,1,1.5958,,,,,,,,1.5958,1,0,5,5,18,1,stimuli/blank.png,Joy,a,,,,,,,,
,,,,,,,,,,,,,simone,1,001,female,2023-04-10_11h37.43.953,openIAT,2020.1.0rc3,Win32,60,a,1,0.8464,,,,,,,,0.8464,1,0,6,6,14,1,stimuli/blank.png,Pleasure,a,,,,,,,,
,,,,,,,,,,,,,simone,1,001,female,2023-04-10_11h37.43.953,openIAT,2020.1.0rc3,Win32,60,a,1,2.6156,,,,,,,,2.6156,1,0,7,7,1,1,stimuli/white_1.jpg,NaN,a,,,,,,,,
,,,,,,,,,,,,,simone,1,001,female,2023-04-10_11h37.43.953,openIAT,2020.1.0rc3,Win32,60,l,1,0.8295,,,,,,,,0.8295,1,0,8,8,6,1,stimuli/black_4.jpg,NaN,l,,,,,,,,
,,,,,,,,,,,,,simone,1,001,female,2023-04-10_11h37.43.953,openIAT,2020.1.0rc3,Win32,60,l,1,0.8138,,,,,,,,0.8138,1,0,9,9,4,1,stimuli/black_3.jpg,NaN,l,,,,,,,,
,,,,,,,,,,,,,simone,1,001,female,2023-04-10_11h37.43.953,openIAT,2020.1.0rc3,Win32,60,l,1,0.9491,,,,,,,,0.9491,1,0,10,10,15,1,stimuli/blank.png,Agony,l,,,,,,,,
,,,,,,,,,,,,,simone,1,001,female,2023-04-10_11h37.43.953,openIAT,2020.1.0rc3,Win32,60,l,1,0.8208,,,,,,,,0.8208,1,0,11,11,0,1,stimuli/black_1.jpg,NaN,l,,,,,,,,
,,,,,,,,,,,,,simone,1,001,female,2023-04-10_11h37.43.953,openIAT,2020.1.0rc3,Win32,60,a,1,0.9061,,,,,,,,0.9061,1,0,12,12,10,1,stimuli/blank.png,Good,a,,,,,,,,
,,,,,,,,,,,,,simone,1,001,female,2023-04-10_11h37.43.953,openIAT,2020.1.0rc3,Win32,60,l,1,0.8459,,,,,,,,0.8459,1,0,13,13,8,1,stimuli/black_5.jpg,NaN,l,,,,,,,,
,,,,,,,,,,,,,simone,1,001,female,2023-04-10_11h37.43.953,openIAT,2020.1.0rc3,Win32,60,a,1,0.9414,,,,,,,,0.9414,1,0,14,14,12,1,stimuli/blank.png,Happy,a,,,,,,,,
,,,,,,,,,,,,,simone,1,001,female,2023-04-10_11h37.43.953,openIAT,2020.1.0rc3,Win32,60,l,1,0.8303,,,,,,,,0.8303,1,0,15,15,17,1,stimuli/blank.png,Evil,l,,,,,,,,
,,,,,,,,,,,,,simone,1,001,female,2023-04-10_11h37.43.953,openIAT,2020.1.0rc3,Win32,60,a,1,0.9007,,,,,,,,0.9007,1,0,16,16,16,1,stimuli/blank.png,Love,a,,,,,,,,
,,,,,,,,,,,,,simone,1,001,female,2023-04-10_11h37.43.953,openIAT,2020.1.0rc3,Win32,60,l,1,0.6907,,,,,,,,0.6907,1,0,17,17,11,1,stimuli/blank.png,Bad,l,,,,,,,,
,,,,,,,,,,,,,simone,1,001,female,2023-04-10_11h37.43.953,openIAT,2020.1.0rc3,Win32,60,l,1,0.7792,,,,,,,,0.7792,1,0,18,18,13,1,stimuli/blank.png,Hurt,l,,,,,,,,
,,,,,,,,,,,,,simone,1,001,female,2023-04-10_11h37.43.953,openIAT,2020.1.0rc3,Win32,60,a,1,1.0152,,,,,,,,1.0152,1,0,19,19,5,1,stimuli/white_3.jpg,NaN,a,,,,,,,,
,,,,,,,,,,,,,simone,1,001,female,2023-04-10_11h37.43.953,openIAT,2020.1.0rc3,Win32,60,,,,,,,,,,,,,,,,,,,,,0,2,2,2,1,cong_test.xlsx,"A = 
White or 
Positive","L = 
Black or 
Negative"
,,,,,,,,,,,,,simone,1,001,female,2023-04-10_11h37.43.953,openIAT,2020.1.0rc3,Win32,60,l,1,1.2544,,,,,,,,1.2544,1,0,0,0,9,1,stimuli/white_5.jpg,,l,,,,,,,,
,,,,,,,,,,,,,simone,1,001,female,2023-04-10_11h37.43.953,openIAT,2020.1.0rc3,Win32,60,l,1,0.9621,,,,,,,,0.9621,1,0,1,1,7,1,stimuli/white_4.jpg,,l,,,,,,,,
,,,,,,,,,,,,,simone,1,001,female,2023-04-10_11h37.43.953,openIAT,2020.1.0rc3,Win32,60,a,1,0.736,,,,,,,,0.736,1,0,2,2,6,1,stimuli/black_4.jpg,,a,,,,,,,,
,,,,,,,,,,,,,simone,1,001,female,2023-04-10_11h37.43.953,openIAT,2020.1.0rc3,Win32,60,l,1,1.1261,,,,,,,,1.1261,1,0,3,3,1,1,stimuli/white_1.jpg,,l,,,,,,,,
,,,,,,,,,,,,,simone,1,001,female,2023-04-10_11h37.43.953,openIAT,2020.1.0rc3,Win32,60,l,1,1.8373,,,,,,,,1.8373,1,0,4,4,3,1,stimuli/white_2.jpg,,l,,,,,,,,
,,,,,,,,,,,,,simone,1,001,female,2023-04-10_11h37.43.953,openIAT,2020.1.0rc3,Win32,60,a,1,0.7052,,,,,,,,0.7052,1,0,5,5,4,1,stimuli/black_3.jpg,,a,,,,,,,,
,,,,,,,,,,,,,simone,1,001,female,2023-04-10_11h37.43.953,openIAT,2020.1.0rc3,Win32,60,a,1,0.7237,,,,,,,,0.7237,1,0,6,6,2,1,stimuli/black_2.jpg,,a,,,,,,,,
,,,,,,,,,,,,,simone,1,001,female,2023-04-10_11h37.43.953,openIAT,2020.1.0rc3,Win32,60,a,1,0.7454,,,,,,,,0.7454,1,0,7,7,8,1,stimuli/black_5.jpg,,a,,,,,,,,
,,,,,,,,,,,,,simone,1,001,female,2023-04-10_11h37.43.953,openIAT,2020.1.0rc3,Win32,60,l,1,0.8093,,,,,,,,0.8093,1,0,8,8,5,1,stimuli/white_3.jpg,,l,,,,,,,,
,,,,,,,,,,,,,simone,1,001,female,2023-04-10_11h37.43.953,openIAT,2020.1.0rc3,Win32,60,a,1,0.7921,,,,,,,,0.7921,1,0,9,9,0,1,stimuli/black_1.jpg,,a,,,,,,,,
,,,,,,,,,,,,,simone,1,001,female,2023-04-10_11h37.43.953,openIAT,2020.1.0rc3,Win32,60,,,,,,,,,,,,,,,,,,,,,0,3,3,3,1,incong_train.xlsx,"A = 
Black","L = 
White"
,,,,,,,,,,,,,simone,1,001,female,2023-04-10_11h37.43.953,openIAT,2020.1.0rc3,Win32,60,l,1,3.3113,,,,,,,,3.3113,1,0,0,0,9,1,stimuli/white_5.jpg,,l,,,,,,,,
,,,,,,,,,,,,,simone,1,001,female,2023-04-10_11h37.43.953,openIAT,2020.1.0rc3,Win32,60,a,1,1.2686,,,,,,,,1.2686,1,0,1,1,10,1,stimuli/blank.png,Good,a,,,,,,,,
,,,,,,,,,,,,,simone,1,001,female,2023-04-10_11h37.43.953,openIAT,2020.1.0rc3,Win32,60,a,1,0.8298,,,,,,,,0.8298,1,0,2,2,14,1,stimuli/blank.png,Pleasure,a,,,,,,,,
,,,,,,,,,,,,,simone,1,001,female,2023-04-10_11h37.43.953,openIAT,2020.1.0rc3,Win32,60,l,1,1.3715,,,,,,,,1.3715,1,0,3,3,1,1,stimuli/white_1.jpg,,l,,,,,,,,
,,,,,,,,,,,,,simone,1,001,female,2023-04-10_11h37.43.953,openIAT,2020.1.0rc3,Win32,60,a,1,1.1154,,,,,,,,1.1154,1,0,4,4,16,1,stimuli/blank.png,Love,a,,,,,,,,
,,,,,,,,,,,,,simone,1,001,female,2023-04-10_11h37.43.953,openIAT,2020.1.0rc3,Win32,60,l,1,1.3298,,,,,,,,1.3298,1,0,5,5,3,1,stimuli/white_2.jpg,,l,,,,,,,,
,,,,,,,,,,,,,simone,1,001,female,2023-04-10_11h37.43.953,openIAT,2020.1.0rc3,Win32,60,l,1,1.4564,,,,,,,,1.4564,1,0,6,6,13,1,stimuli/blank.png,Hurt,l,,,,,,,,
,,,,,,,,,,,,,simone,1,001,female,2023-04-10_11h37.43.953,openIAT,2020.1.0rc3,Win32,60,l,1,1.4857,,,,,,,,1.4857,1,0,7,7,7,1,stimuli/white_4.jpg,,l,,,,,,,,
,,,,,,,,,,,,,simone,1,001,female,2023-04-10_11h37.43.953,openIAT,2020.1.0rc3,Win32,60,a,1,0.8349,,,,,,,,0.8349,1,0,8,8,2,1,stimuli/black_2.jpg,,a,,,,,,,,
,,,,,,,,,,,,,simone,1,001,female,2023-04-10_11h37.43.953,openIAT,2020.1.0rc3,Win32,60,l,1,1.4841,,,,,,,,1.4841,1,0,9,9,15,1,stimuli/blank.png,Agony,l,,,,,,,,
,,,,,,,,,,,,,simone,1,001,female,2023-04-10_11h37.43.953,openIAT,2020.1.0rc3,Win32,60,a,1,0.858,,,,,,,,0.858,1,0,10,10,4,1,stimuli/black_3.jpg,,a,,,,,,,,
,,,,,,,,,,,,,simone,1,001,female,2023-04-10_11h37.43.953,openIAT,2020.1.0rc3,Win32,60,a,1,0.6715,,,,,,,,0.6715,1,0,11,11,0,1,stimuli/black_1.jpg,,a,,,,,,,,
,,,,,,,,,,,,,simone,1,001,female,2023-04-10_11h37.43.953,openIAT,2020.1.0rc3,Win32,60,l,1,0.8966,,,,,,,,0.8966,1,0,12,12,5,1,stimuli/white_3.jpg,,l,,,,,,,,
,,,,,,,,,,,,,simone,1,001,female,2023-04-10_11h37.43.953,openIAT,2020.1.0rc3,Win32,60,a,1,1.0785,,,,,,,,1.0785,1,0,13,13,12,1,stimuli/blank.png,Happy,a,,,,,,,,
,,,,,,,,,,,,,simone,1,001,female,2023-04-10_11h37.43.953,openIAT,2020.1.0rc3,Win32,60,l,1,0.8246,,,,,,,,0.8246,1,0,14,14,11,1,stimuli/blank.png,Bad,l,,,,,,,,
,,,,,,,,,,,,,simone,1,001,female,2023-04-10_11h37.43.953,openIAT,2020.1.0rc3,Win32,60,a,1,0.8356,,,,,,,,0.8356,1,0,15,15,6,1,stimuli/black_4.jpg,,a,,,,,,,,
,,,,,,,,,,,,,simone,1,001,female,2023-04-10_11h37.43.953,openIAT,2020.1.0rc3,Win32,60,l,1,0.8959,,,,,,,,0.8959,1,0,16,16,19,1,stimuli/blank.png,Nasty,l,,,,,,,,
,,,,,,,,,,,,,simone,1,001,female,2023-04-10_11h37.43.953,openIAT,2020.1.0rc3,Win32,60,a,1,0.9341,,,,,,,,0.9341,1,0,17,17,18,1,stimuli/blank.png,Joy,a,,,,,,,,
,,,,,,,,,,,,,simone,1,001,female,2023-04-10_11h37.43.953,openIAT,2020.1.0rc3,Win32,60,a,1,0.6533,,,,,,,,0.6533,1,0,18,18,8,1,stimuli/black_5.jpg,,a,,,,,,,,
,,,,,,,,,,,,,simone,1,001,female,2023-04-10_11h37.43.953,openIAT,2020.1.0rc3,Win32,60,l,1,1.1076,,,,,,,,1.1076,1,0,19,19,17,1,stimuli/blank.png,Evil,l,,,,,,,,
