instr_done_touch.x,instr_done_touch.y,instr_done_touch.leftButton,instr_done_touch.midButton,instr_done_touch.rightButton,instruct_pages.thisRepN,instruct_pages.thisTrialN,instruct_pages.thisN,instruct_pages.thisIndex,instruct_pages.ran,pageN,instruct_text,participant,order,session,gender,date,expName,psychopyVersion,OS,frameRate,key_resp.keys,key_resp.corr,key_resp.rt,touch_resp.x,touch_resp.y,touch_resp.leftButton,touch_resp.midButton,touch_resp.rightButton,touch_resp.time,touch_resp.clicked_name,rt,corr,trials.thisRepN,trials.thisTrialN,trials.thisN,trials.thisIndex,trials.ran,stimImage,stimWord,CorrAns,blocks.thisRepN,blocks.thisTrialN,blocks.thisN,blocks.thisIndex,blocks.ran,conds_file,label_left,label_right
0.104629658,-0.324074074,0,0,0,0,0,0,0,1,1,"You will be presented with words or images to classify into categories using either the 'A' or 'L' key. 
 
Try to go as fast as possible while making as few mistakes as possible. 
",ss,1,001,male,2023-05-05_02h55.21.890,openIAT,2020.1.0rc3,Win32,60,,,,,,,,,,,,,,,,,,,,,,,,,,,,
0.104629658,-0.324074074,0,0,0,0,1,1,1,1,2,"Keep in mind: 
 
1) Labels at the top of the screen indicate which catogory goes with which key. 
 
2) Each word or image has a correct catogory classification 
 
3) Keep your index fingers on the A and L keys to enable a rapid response. 
 
4) The test gives no results if you go slow- please try to go as fast as possible 
",ss,1,001,male,2023-05-05_02h55.21.890,openIAT,2020.1.0rc3,Win32,60,,,,,,,,,,,,,,,,,,,,,,,,,,,,
,,,,,,,,,,,,ss,1,001,male,2023-05-05_02h55.21.890,openIAT,2020.1.0rc3,Win32,60,a,1,2.183,,,,,,,,2.183,1,0,0,0,6,1,stimuli/blank.png,Love,a,,,,,,,,
,,,,,,,,,,,,ss,1,001,male,2023-05-05_02h55.21.890,openIAT,2020.1.0rc3,Win32,60,l,0,2.7004,,,,,,,,2.7004,0,0,1,1,4,1,stimuli/blank.png,Pleasure,a,,,,,,,,
,,,,,,,,,,,,ss,1,001,male,2023-05-05_02h55.21.890,openIAT,2020.1.0rc3,Win32,60,a,1,1.4345,,,,,,,,1.4345,1,0,2,2,0,1,stimuli/blank.png,Good,a,,,,,,,,
,,,,,,,,,,,,ss,1,001,male,2023-05-05_02h55.21.890,openIAT,2020.1.0rc3,Win32,60,a,1,0.8043,,,,,,,,0.8043,1,0,3,3,2,1,stimuli/blank.png,Happy,a,,,,,,,,
,,,,,,,,,,,,ss,1,001,male,2023-05-05_02h55.21.890,openIAT,2020.1.0rc3,Win32,60,a,1,0.8548,,,,,,,,0.8548,1,0,4,4,8,1,stimuli/blank.png,Joy,a,,,,,,,,
,,,,,,,,,,,,ss,1,001,male,2023-05-05_02h55.21.890,openIAT,2020.1.0rc3,Win32,60,l,1,0.9346,,,,,,,,0.9346,1,0,5,5,7,1,stimuli/blank.png,Evil,l,,,,,,,,
,,,,,,,,,,,,ss,1,001,male,2023-05-05_02h55.21.890,openIAT,2020.1.0rc3,Win32,60,l,1,0.9683,,,,,,,,0.9683,1,0,6,6,1,1,stimuli/blank.png,Bad,l,,,,,,,,
,,,,,,,,,,,,ss,1,001,male,2023-05-05_02h55.21.890,openIAT,2020.1.0rc3,Win32,60,l,1,2.6008,,,,,,,,2.6008,1,0,7,7,5,1,stimuli/blank.png,Agony,l,,,,,,,,
,,,,,,,,,,,,ss,1,001,male,2023-05-05_02h55.21.890,openIAT,2020.1.0rc3,Win32,60,l,1,1.9907,,,,,,,,1.9907,1,0,8,8,9,1,stimuli/blank.png,Nasty,l,,,,,,,,
,,,,,,,,,,,,ss,1,001,male,2023-05-05_02h55.21.890,openIAT,2020.1.0rc3,Win32,60,l,1,0.8036,,,,,,,,0.8036,1,0,9,9,3,1,stimuli/blank.png,Hurt,l,,,,,,,,
,,,,,,,,,,,,ss,1,001,male,2023-05-05_02h55.21.890,openIAT,2020.1.0rc3,Win32,60,,,,,,,,,,,,,,,,,,,,,0,0,0,0,1,pos_neg_train.xlsx,"A = 
Positive","L = 
Negative"
,,,,,,,,,,,,ss,1,001,male,2023-05-05_02h55.21.890,openIAT,2020.1.0rc3,Win32,60,l,0,2.92,,,,,,,,2.92,0,0,0,0,5,1,stimuli/white_3.jpg,NaN,a,,,,,,,,
,,,,,,,,,,,,ss,1,001,male,2023-05-05_02h55.21.890,openIAT,2020.1.0rc3,Win32,60,a,1,0.9378,,,,,,,,0.9378,1,0,1,1,7,1,stimuli/white_4.jpg,NaN,a,,,,,,,,
,,,,,,,,,,,,ss,1,001,male,2023-05-05_02h55.21.890,openIAT,2020.1.0rc3,Win32,60,l,1,0.8682,,,,,,,,0.8682,1,0,2,2,0,1,stimuli/black_1.jpg,NaN,l,,,,,,,,
,,,,,,,,,,,,ss,1,001,male,2023-05-05_02h55.21.890,openIAT,2020.1.0rc3,Win32,60,a,1,1.9187,,,,,,,,1.9187,1,0,3,3,1,1,stimuli/white_1.jpg,NaN,a,,,,,,,,
,,,,,,,,,,,,ss,1,001,male,2023-05-05_02h55.21.890,openIAT,2020.1.0rc3,Win32,60,l,1,0.7279,,,,,,,,0.7279,1,0,4,4,4,1,stimuli/black_3.jpg,NaN,l,,,,,,,,
,,,,,,,,,,,,ss,1,001,male,2023-05-05_02h55.21.890,openIAT,2020.1.0rc3,Win32,60,a,1,1.0675,,,,,,,,1.0675,1,0,5,5,9,1,stimuli/white_5.jpg,NaN,a,,,,,,,,
,,,,,,,,,,,,ss,1,001,male,2023-05-05_02h55.21.890,openIAT,2020.1.0rc3,Win32,60,l,1,0.9045,,,,,,,,0.9045,1,0,6,6,8,1,stimuli/black_5.jpg,NaN,l,,,,,,,,
,,,,,,,,,,,,ss,1,001,male,2023-05-05_02h55.21.890,openIAT,2020.1.0rc3,Win32,60,l,1,0.7497,,,,,,,,0.7497,1,0,7,7,6,1,stimuli/black_4.jpg,NaN,l,,,,,,,,
,,,,,,,,,,,,ss,1,001,male,2023-05-05_02h55.21.890,openIAT,2020.1.0rc3,Win32,60,l,1,0.6691,,,,,,,,0.6691,1,0,8,8,2,1,stimuli/black_2.jpg,NaN,l,,,,,,,,
,,,,,,,,,,,,ss,1,001,male,2023-05-05_02h55.21.890,openIAT,2020.1.0rc3,Win32,60,a,1,1.2186,,,,,,,,1.2186,1,0,9,9,3,1,stimuli/white_2.jpg,NaN,a,,,,,,,,
,,,,,,,,,,,,ss,1,001,male,2023-05-05_02h55.21.890,openIAT,2020.1.0rc3,Win32,60,,,,,,,,,,,,,,,,,,,,,0,1,1,1,1,cong_train.xlsx,"A = 
White","L = 
Black"
,,,,,,,,,,,,ss,1,001,male,2023-05-05_02h55.21.890,openIAT,2020.1.0rc3,Win32,60,a,1,3.3434,,,,,,,,3.3434,1,0,0,0,3,1,stimuli/white_2.jpg,NaN,a,,,,,,,,
,,,,,,,,,,,,ss,1,001,male,2023-05-05_02h55.21.890,openIAT,2020.1.0rc3,Win32,60,l,1,2.1343,,,,,,,,2.1343,1,0,1,1,2,1,stimuli/black_2.jpg,NaN,l,,,,,,,,
,,,,,,,,,,,,ss,1,001,male,2023-05-05_02h55.21.890,openIAT,2020.1.0rc3,Win32,60,l,1,1.1173,,,,,,,,1.1173,1,0,2,2,4,1,stimuli/black_3.jpg,NaN,l,,,,,,,,
