instr_done_touch.x,instr_done_touch.y,instr_done_touch.leftButton,instr_done_touch.midButton,instr_done_touch.rightButton,instr_done_touch.clicked_name,instruct_pages.thisRepN,instruct_pages.thisTrialN,instruct_pages.thisN,instruct_pages.thisIndex,instruct_pages.ran,pageN,instruct_text,participant,order,session,gender,date,expName,psychopyVersion,OS,frameRate,key_resp.keys,key_resp.corr,key_resp.rt,touch_resp.x,touch_resp.y,touch_resp.leftButton,touch_resp.midButton,touch_resp.rightButton,touch_resp.time,touch_resp.clicked_name,rt,corr,trials.thisRepN,trials.thisTrialN,trials.thisN,trials.thisIndex,trials.ran,stimImage,stimWord,CorrAns,blocks.thisRepN,blocks.thisTrialN,blocks.thisN,blocks.thisIndex,blocks.ran,conds_file,label_left,label_right
-0.079472656,-0.371088732,1,0,0,instr_done_button,0,0,0,0,1,1,"You will be presented with words or images to classify into categories using either the 'A' or 'L' key. 
 
Try to go as fast as possible while making as few mistakes as possible. 
",t1,1,001,male,2022-07-12_16h28.13.776,openIAT,2020.1.0rc3,MacIntel,60,,,,,,,,,,,,,,,,,,,,,,,,,,,,
-0.0844713,-0.368119371,1,0,0,instr_done_button,0,1,1,1,1,2,"Keep in mind: 
 
1) Labels at the top of the screen indicate which catogory goes with which key. 
 
2) Each word or image has a correct catogory classification 
 
3) Keep your index fingers on the A and L keys to enable a rapid response. 
 
4) The test gives no results if you go slow- please try to go as fast as possible 
",t1,1,001,male,2022-07-12_16h28.13.776,openIAT,2020.1.0rc3,MacIntel,60,,,,,,,,,,,,,,,,,,,,,,,,,,,,
,,,,,,,,,,,,,t1,1,001,male,2022-07-12_16h28.13.776,openIAT,2020.1.0rc3,MacIntel,60,a,1,0.9563,,,,,,,,0.9563,1,0,0,0,4,1,stimuli/blank.png,Pleasure,a,,,,,,,,
,,,,,,,,,,,,,t1,1,001,male,2022-07-12_16h28.13.776,openIAT,2020.1.0rc3,MacIntel,60,a,1,0.7831,,,,,,,,0.7831,1,0,1,1,8,1,stimuli/blank.png,Joy,a,,,,,,,,
,,,,,,,,,,,,,t1,1,001,male,2022-07-12_16h28.13.776,openIAT,2020.1.0rc3,MacIntel,60,l,1,0.8793,,,,,,,,0.8793,1,0,2,2,9,1,stimuli/blank.png,Nasty,l,,,,,,,,
,,,,,,,,,,,,,t1,1,001,male,2022-07-12_16h28.13.776,openIAT,2020.1.0rc3,MacIntel,60,l,1,0.7892,,,,,,,,0.7892,1,0,3,3,5,1,stimuli/blank.png,Agony,l,,,,,,,,
,,,,,,,,,,,,,t1,1,001,male,2022-07-12_16h28.13.776,openIAT,2020.1.0rc3,MacIntel,60,l,1,0.6984,,,,,,,,0.6984,1,0,4,4,3,1,stimuli/blank.png,Hurt,l,,,,,,,,
,,,,,,,,,,,,,t1,1,001,male,2022-07-12_16h28.13.776,openIAT,2020.1.0rc3,MacIntel,60,l,1,0.5584,,,,,,,,0.5584,1,0,5,5,1,1,stimuli/blank.png,Bad,l,,,,,,,,
,,,,,,,,,,,,,t1,1,001,male,2022-07-12_16h28.13.776,openIAT,2020.1.0rc3,MacIntel,60,a,1,1.1789,,,,,,,,1.1789,1,0,6,6,0,1,stimuli/blank.png,Good,a,,,,,,,,
,,,,,,,,,,,,,t1,1,001,male,2022-07-12_16h28.13.776,openIAT,2020.1.0rc3,MacIntel,60,a,1,1.327,,,,,,,,1.327,1,0,7,7,6,1,stimuli/blank.png,Love,a,,,,,,,,
,,,,,,,,,,,,,t1,1,001,male,2022-07-12_16h28.13.776,openIAT,2020.1.0rc3,MacIntel,60,a,1,0.7668,,,,,,,,0.7668,1,0,8,8,2,1,stimuli/blank.png,Happy,a,,,,,,,,
,,,,,,,,,,,,,t1,1,001,male,2022-07-12_16h28.13.776,openIAT,2020.1.0rc3,MacIntel,60,l,1,0.9735,,,,,,,,0.9735,1,0,9,9,7,1,stimuli/blank.png,Evil,l,,,,,,,,
,,,,,,,,,,,,,t1,1,001,male,2022-07-12_16h28.13.776,openIAT,2020.1.0rc3,MacIntel,60,,,,,,,,,,,,,,,,,,,,,0,0,0,0,1,pos_neg_train.xlsx,"A = 
Positive","L = 
Negative"
,,,,,,,,,,,,,t1,1,001,male,2022-07-12_16h28.13.776,openIAT,2020.1.0rc3,MacIntel,60,l,1,0.9032,,,,,,,,0.9032,1,0,0,0,4,1,stimuli/black_3.jpg,NaN,l,,,,,,,,
,,,,,,,,,,,,,t1,1,001,male,2022-07-12_16h28.13.776,openIAT,2020.1.0rc3,MacIntel,60,a,1,0.7776,,,,,,,,0.7776,1,0,1,1,3,1,stimuli/white_2.jpg,NaN,a,,,,,,,,
,,,,,,,,,,,,,t1,1,001,male,2022-07-12_16h28.13.776,openIAT,2020.1.0rc3,MacIntel,60,a,1,0.7365,,,,,,,,0.7365,1,0,2,2,1,1,stimuli/white_1.jpg,NaN,a,,,,,,,,
,,,,,,,,,,,,,t1,1,001,male,2022-07-12_16h28.13.776,openIAT,2020.1.0rc3,MacIntel,60,l,1,0.7898,,,,,,,,0.7898,1,0,3,3,8,1,stimuli/black_5.jpg,NaN,l,,,,,,,,
,,,,,,,,,,,,,t1,1,001,male,2022-07-12_16h28.13.776,openIAT,2020.1.0rc3,MacIntel,60,a,1,0.7556,,,,,,,,0.7556,1,0,4,4,9,1,stimuli/white_5.jpg,NaN,a,,,,,,,,
,,,,,,,,,,,,,t1,1,001,male,2022-07-12_16h28.13.776,openIAT,2020.1.0rc3,MacIntel,60,a,1,0.9751,,,,,,,,0.9751,1,0,5,5,7,1,stimuli/white_4.jpg,NaN,a,,,,,,,,
,,,,,,,,,,,,,t1,1,001,male,2022-07-12_16h28.13.776,openIAT,2020.1.0rc3,MacIntel,60,a,1,1.4542,,,,,,,,1.4542,1,0,6,6,5,1,stimuli/white_3.jpg,NaN,a,,,,,,,,
,,,,,,,,,,,,,t1,1,001,male,2022-07-12_16h28.13.776,openIAT,2020.1.0rc3,MacIntel,60,l,1,0.5318,,,,,,,,0.5318,1,0,7,7,2,1,stimuli/black_2.jpg,NaN,l,,,,,,,,
,,,,,,,,,,,,,t1,1,001,male,2022-07-12_16h28.13.776,openIAT,2020.1.0rc3,MacIntel,60,l,1,0.5577,,,,,,,,0.5577,1,0,8,8,6,1,stimuli/black_4.jpg,NaN,l,,,,,,,,
,,,,,,,,,,,,,t1,1,001,male,2022-07-12_16h28.13.776,openIAT,2020.1.0rc3,MacIntel,60,l,1,0.5645,,,,,,,,0.5645,1,0,9,9,0,1,stimuli/black_1.jpg,NaN,l,,,,,,,,
,,,,,,,,,,,,,t1,1,001,male,2022-07-12_16h28.13.776,openIAT,2020.1.0rc3,MacIntel,60,,,,,,,,,,,,,,,,,,,,,0,1,1,1,1,cong_train.xlsx,"A = 
White","L = 
Black"
,,,,,,,,,,,,,t1,1,001,male,2022-07-12_16h28.13.776,openIAT,2020.1.0rc3,MacIntel,60,l,1,2.2731,,,,,,,,2.2731,1,0,0,0,2,1,stimuli/black_2.jpg,NaN,l,,,,,,,,
,,,,,,,,,,,,,t1,1,001,male,2022-07-12_16h28.13.776,openIAT,2020.1.0rc3,MacIntel,60,l,1,1.0623,,,,,,,,1.0623,1,0,1,1,8,1,stimuli/black_5.jpg,NaN,l,,,,,,,,
,,,,,,,,,,,,,t1,1,001,male,2022-07-12_16h28.13.776,openIAT,2020.1.0rc3,MacIntel,60,l,1,1.6704,,,,,,,,1.6704,1,0,2,2,19,1,stimuli/blank.png,Nasty,l,,,,,,,,
,,,,,,,,,,,,,t1,1,001,male,2022-07-12_16h28.13.776,openIAT,2020.1.0rc3,MacIntel,60,l,1,0.8601,,,,,,,,0.8601,1,0,3,3,0,1,stimuli/black_1.jpg,NaN,l,,,,,,,,
,,,,,,,,,,,,,t1,1,001,male,2022-07-12_16h28.13.776,openIAT,2020.1.0rc3,MacIntel,60,l,1,0.631,,,,,,,,0.631,1,0,4,4,4,1,stimuli/black_3.jpg,NaN,l,,,,,,,,
,,,,,,,,,,,,,t1,1,001,male,2022-07-12_16h28.13.776,openIAT,2020.1.0rc3,MacIntel,60,l,1,2.0859,,,,,,,,2.0859,1,0,5,5,17,1,stimuli/blank.png,Evil,l,,,,,,,,
,,,,,,,,,,,,,t1,1,001,male,2022-07-12_16h28.13.776,openIAT,2020.1.0rc3,MacIntel,60,a,1,0.992,,,,,,,,0.992,1,0,6,6,1,1,stimuli/white_1.jpg,NaN,a,,,,,,,,
,,,,,,,,,,,,,t1,1,001,male,2022-07-12_16h28.13.776,openIAT,2020.1.0rc3,MacIntel,60,l,1,1.2358,,,,,,,,1.2358,1,0,7,7,15,1,stimuli/blank.png,Agony,l,,,,,,,,
,,,,,,,,,,,,,t1,1,001,male,2022-07-12_16h28.13.776,openIAT,2020.1.0rc3,MacIntel,60,l,1,0.9445,,,,,,,,0.9445,1,0,8,8,6,1,stimuli/black_4.jpg,NaN,l,,,,,,,,
,,,,,,,,,,,,,t1,1,001,male,2022-07-12_16h28.13.776,openIAT,2020.1.0rc3,MacIntel,60,a,1,1.144,,,,,,,,1.144,1,0,9,9,18,1,stimuli/blank.png,Joy,a,,,,,,,,
,,,,,,,,,,,,,t1,1,001,male,2022-07-12_16h28.13.776,openIAT,2020.1.0rc3,MacIntel,60,a,1,0.8714,,,,,,,,0.8714,1,0,10,10,14,1,stimuli/blank.png,Pleasure,a,,,,,,,,
,,,,,,,,,,,,,t1,1,001,male,2022-07-12_16h28.13.776,openIAT,2020.1.0rc3,MacIntel,60,a,1,0.6517,,,,,,,,0.6517,1,0,11,11,16,1,stimuli/blank.png,Love,a,,,,,,,,
,,,,,,,,,,,,,t1,1,001,male,2022-07-12_16h28.13.776,openIAT,2020.1.0rc3,MacIntel,60,a,1,0.642,,,,,,,,0.642,1,0,12,12,10,1,stimuli/blank.png,Good,a,,,,,,,,
,,,,,,,,,,,,,t1,1,001,male,2022-07-12_16h28.13.776,openIAT,2020.1.0rc3,MacIntel,60,a,1,0.8116,,,,,,,,0.8116,1,0,13,13,3,1,stimuli/white_2.jpg,NaN,a,,,,,,,,
,,,,,,,,,,,,,t1,1,001,male,2022-07-12_16h28.13.776,openIAT,2020.1.0rc3,MacIntel,60,a,1,0.7028,,,,,,,,0.7028,1,0,14,14,12,1,stimuli/blank.png,Happy,a,,,,,,,,
,,,,,,,,,,,,,t1,1,001,male,2022-07-12_16h28.13.776,openIAT,2020.1.0rc3,MacIntel,60,l,1,0.7365,,,,,,,,0.7365,1,0,15,15,11,1,stimuli/blank.png,Bad,l,,,,,,,,
,,,,,,,,,,,,,t1,1,001,male,2022-07-12_16h28.13.776,openIAT,2020.1.0rc3,MacIntel,60,l,1,0.9595,,,,,,,,0.9595,1,0,16,16,13,1,stimuli/blank.png,Hurt,l,,,,,,,,
,,,,,,,,,,,,,t1,1,001,male,2022-07-12_16h28.13.776,openIAT,2020.1.0rc3,MacIntel,60,a,1,0.743,,,,,,,,0.743,1,0,17,17,5,1,stimuli/white_3.jpg,NaN,a,,,,,,,,
,,,,,,,,,,,,,t1,1,001,male,2022-07-12_16h28.13.776,openIAT,2020.1.0rc3,MacIntel,60,a,1,0.9268,,,,,,,,0.9268,1,0,18,18,7,1,stimuli/white_4.jpg,NaN,a,,,,,,,,
,,,,,,,,,,,,,t1,1,001,male,2022-07-12_16h28.13.776,openIAT,2020.1.0rc3,MacIntel,60,a,1,0.5555,,,,,,,,0.5555,1,0,19,19,9,1,stimuli/white_5.jpg,NaN,a,,,,,,,,
,,,,,,,,,,,,,t1,1,001,male,2022-07-12_16h28.13.776,openIAT,2020.1.0rc3,MacIntel,60,,,,,,,,,,,,,,,,,,,,,0,2,2,2,1,cong_test.xlsx,"A = 
White or 
Positive","L = 
Black or 
Negative"
,,,,,,,,,,,,,t1,1,001,male,2022-07-12_16h28.13.776,openIAT,2020.1.0rc3,MacIntel,60,a,1,0.8424,,,,,,,,0.8424,1,0,0,0,8,1,stimuli/black_5.jpg,,a,,,,,,,,
,,,,,,,,,,,,,t1,1,001,male,2022-07-12_16h28.13.776,openIAT,2020.1.0rc3,MacIntel,60,a,1,0.8543,,,,,,,,0.8543,1,0,1,1,2,1,stimuli/black_2.jpg,,a,,,,,,,,
,,,,,,,,,,,,,t1,1,001,male,2022-07-12_16h28.13.776,openIAT,2020.1.0rc3,MacIntel,60,l,1,1.3041,,,,,,,,1.3041,1,0,2,2,3,1,stimuli/white_2.jpg,,l,,,,,,,,
,,,,,,,,,,,,,t1,1,001,male,2022-07-12_16h28.13.776,openIAT,2020.1.0rc3,MacIntel,60,a,1,0.7289,,,,,,,,0.7289,1,0,3,3,0,1,stimuli/black_1.jpg,,a,,,,,,,,
,,,,,,,,,,,,,t1,1,001,male,2022-07-12_16h28.13.776,openIAT,2020.1.0rc3,MacIntel,60,l,1,1.0024,,,,,,,,1.0024,1,0,4,4,1,1,stimuli/white_1.jpg,,l,,,,,,,,
,,,,,,,,,,,,,t1,1,001,male,2022-07-12_16h28.13.776,openIAT,2020.1.0rc3,MacIntel,60,l,1,1.1694,,,,,,,,1.1694,1,0,5,5,7,1,stimuli/white_4.jpg,,l,,,,,,,,
,,,,,,,,,,,,,t1,1,001,male,2022-07-12_16h28.13.776,openIAT,2020.1.0rc3,MacIntel,60,l,1,0.6274,,,,,,,,0.6274,1,0,6,6,9,1,stimuli/white_5.jpg,,l,,,,,,,,
,,,,,,,,,,,,,t1,1,001,male,2022-07-12_16h28.13.776,openIAT,2020.1.0rc3,MacIntel,60,a,1,0.662,,,,,,,,0.662,1,0,7,7,6,1,stimuli/black_4.jpg,,a,,,,,,,,
,,,,,,,,,,,,,t1,1,001,male,2022-07-12_16h28.13.776,openIAT,2020.1.0rc3,MacIntel,60,a,1,1.8394,,,,,,,,1.8394,1,0,8,8,4,1,stimuli/black_3.jpg,,a,,,,,,,,
,,,,,,,,,,,,,t1,1,001,male,2022-07-12_16h28.13.776,openIAT,2020.1.0rc3,MacIntel,60,l,1,0.6814,,,,,,,,0.6814,1,0,9,9,5,1,stimuli/white_3.jpg,,l,,,,,,,,
,,,,,,,,,,,,,t1,1,001,male,2022-07-12_16h28.13.776,openIAT,2020.1.0rc3,MacIntel,60,,,,,,,,,,,,,,,,,,,,,0,3,3,3,1,incong_train.xlsx,"A = 
Black","L = 
White"
,,,,,,,,,,,,,t1,1,001,male,2022-07-12_16h28.13.776,openIAT,2020.1.0rc3,MacIntel,60,l,1,1.1381,,,,,,,,1.1381,1,0,0,0,19,1,stimuli/blank.png,Nasty,l,,,,,,,,
,,,,,,,,,,,,,t1,1,001,male,2022-07-12_16h28.13.776,openIAT,2020.1.0rc3,MacIntel,60,l,1,1.3404,,,,,,,,1.3404,1,0,1,1,3,1,stimuli/white_2.jpg,,l,,,,,,,,
,,,,,,,,,,,,,t1,1,001,male,2022-07-12_16h28.13.776,openIAT,2020.1.0rc3,MacIntel,60,a,1,0.774,,,,,,,,0.774,1,0,2,2,6,1,stimuli/black_4.jpg,,a,,,,,,,,
,,,,,,,,,,,,,t1,1,001,male,2022-07-12_16h28.13.776,openIAT,2020.1.0rc3,MacIntel,60,a,1,2.4602,,,,,,,,2.4602,1,0,3,3,14,1,stimuli/blank.png,Pleasure,a,,,,,,,,
,,,,,,,,,,,,,t1,1,001,male,2022-07-12_16h28.13.776,openIAT,2020.1.0rc3,MacIntel,60,a,1,0.7656,,,,,,,,0.7656,1,0,4,4,18,1,stimuli/blank.png,Joy,a,,,,,,,,
,,,,,,,,,,,,,t1,1,001,male,2022-07-12_16h28.13.776,openIAT,2020.1.0rc3,MacIntel,60,l,1,0.7396,,,,,,,,0.7396,1,0,5,5,15,1,stimuli/blank.png,Agony,l,,,,,,,,
,,,,,,,,,,,,,t1,1,001,male,2022-07-12_16h28.13.776,openIAT,2020.1.0rc3,MacIntel,60,a,1,0.8704,,,,,,,,0.8704,1,0,6,6,2,1,stimuli/black_2.jpg,,a,,,,,,,,
,,,,,,,,,,,,,t1,1,001,male,2022-07-12_16h28.13.776,openIAT,2020.1.0rc3,MacIntel,60,l,1,0.725,,,,,,,,0.725,1,0,7,7,7,1,stimuli/white_4.jpg,,l,,,,,,,,
,,,,,,,,,,,,,t1,1,001,male,2022-07-12_16h28.13.776,openIAT,2020.1.0rc3,MacIntel,60,l,1,0.7074,,,,,,,,0.7074,1,0,8,8,9,1,stimuli/white_5.jpg,,l,,,,,,,,
,,,,,,,,,,,,,t1,1,001,male,2022-07-12_16h28.13.776,openIAT,2020.1.0rc3,MacIntel,60,a,0,1.1566,,,,,,,,1.1566,0,0,9,9,11,1,stimuli/blank.png,Bad,l,,,,,,,,
,,,,,,,,,,,,,t1,1,001,male,2022-07-12_16h28.13.776,openIAT,2020.1.0rc3,MacIntel,60,l,1,1.5066,,,,,,,,1.5066,1,0,10,10,13,1,stimuli/blank.png,Hurt,l,,,,,,,,
,,,,,,,,,,,,,t1,1,001,male,2022-07-12_16h28.13.776,openIAT,2020.1.0rc3,MacIntel,60,a,1,0.9076,,,,,,,,0.9076,1,0,11,11,8,1,stimuli/black_5.jpg,,a,,,,,,,,
,,,,,,,,,,,,,t1,1,001,male,2022-07-12_16h28.13.776,openIAT,2020.1.0rc3,MacIntel,60,l,1,0.8156,,,,,,,,0.8156,1,0,12,12,1,1,stimuli/white_1.jpg,,l,,,,,,,,
,,,,,,,,,,,,,t1,1,001,male,2022-07-12_16h28.13.776,openIAT,2020.1.0rc3,MacIntel,60,l,1,0.626,,,,,,,,0.626,1,0,13,13,5,1,stimuli/white_3.jpg,,l,,,,,,,,
,,,,,,,,,,,,,t1,1,001,male,2022-07-12_16h28.13.776,openIAT,2020.1.0rc3,MacIntel,60,a,1,1.5186,,,,,,,,1.5186,1,0,14,14,16,1,stimuli/blank.png,Love,a,,,,,,,,
,,,,,,,,,,,,,t1,1,001,male,2022-07-12_16h28.13.776,openIAT,2020.1.0rc3,MacIntel,60,a,1,1.2541,,,,,,,,1.2541,1,0,15,15,0,1,stimuli/black_1.jpg,,a,,,,,,,,
,,,,,,,,,,,,,t1,1,001,male,2022-07-12_16h28.13.776,openIAT,2020.1.0rc3,MacIntel,60,a,1,1.9052,,,,,,,,1.9052,1,0,16,16,12,1,stimuli/blank.png,Happy,a,,,,,,,,
,,,,,,,,,,,,,t1,1,001,male,2022-07-12_16h28.13.776,openIAT,2020.1.0rc3,MacIntel,60,l,1,0.8764,,,,,,,,0.8764,1,0,17,17,17,1,stimuli/blank.png,Evil,l,,,,,,,,
,,,,,,,,,,,,,t1,1,001,male,2022-07-12_16h28.13.776,openIAT,2020.1.0rc3,MacIntel,60,a,1,0.8461,,,,,,,,0.8461,1,0,18,18,4,1,stimuli/black_3.jpg,,a,,,,,,,,
,,,,,,,,,,,,,t1,1,001,male,2022-07-12_16h28.13.776,openIAT,2020.1.0rc3,MacIntel,60,a,1,0.8706,,,,,,,,0.8706,1,0,19,19,10,1,stimuli/blank.png,Good,a,,,,,,,,
