instr_done_touch.x,instr_done_touch.y,instr_done_touch.leftButton,instr_done_touch.midButton,instr_done_touch.rightButton,instr_done_touch.clicked_name,instruct_pages.thisRepN,instruct_pages.thisTrialN,instruct_pages.thisN,instruct_pages.thisIndex,instruct_pages.ran,pageN,instruct_text,participant,order,session,gender,date,expName,psychopyVersion,OS,frameRate,key_resp.keys,key_resp.corr,key_resp.rt,touch_resp.x,touch_resp.y,touch_resp.leftButton,touch_resp.midButton,touch_resp.rightButton,touch_resp.time,touch_resp.clicked_name,rt,corr,trials.thisRepN,trials.thisTrialN,trials.thisN,trials.thisIndex,trials.ran,stimImage,stimWord,CorrAns,blocks.thisRepN,blocks.thisTrialN,blocks.thisN,blocks.thisIndex,blocks.ran,conds_file,label_left,label_right
0.040740741,-0.389814815,1,0,0,instr_done_button,0,0,0,0,1,1,"You will be presented with words or images to classify into categories using either the 'A' or 'L' key. 
 
Try to go as fast as possible while making as few mistakes as possible. 
",test,2,001,female,2020-10-27_21h15.27.456,openIAT,2020.1.0rc3,Win32,60,,,,,,,,,,,,,,,,,,,,,,,,,,,,
0.040740741,-0.389814815,1,0,0,instr_done_button,0,1,1,1,1,2,"Keep in mind: 
 
1) Labels at the top of the screen indicate which catogory goes with which key. 
 
2) Each word or image has a correct catogory classification 
 
3) Keep your index fingers on the A and L keys to enable a rapid response. 
 
4) The test gives no results if you go slow- please try to go as fast as possible 
",test,2,001,female,2020-10-27_21h15.27.456,openIAT,2020.1.0rc3,Win32,60,,,,,,,,,,,,,,,,,,,,,,,,,,,,
,,,,,,,,,,,,,test,2,001,female,2020-10-27_21h15.27.456,openIAT,2020.1.0rc3,Win32,60,a,1,0.54892,,,,,,,,0.54892,1,0,0,0,2,1,stimuli/blank.png,Happy,a,,,,,,,,
,,,,,,,,,,,,,test,2,001,female,2020-10-27_21h15.27.456,openIAT,2020.1.0rc3,Win32,60,l,0,0.93926,,,,,,,,0.93926,0,0,1,1,6,1,stimuli/blank.png,Love,a,,,,,,,,
,,,,,,,,,,,,,test,2,001,female,2020-10-27_21h15.27.456,openIAT,2020.1.0rc3,Win32,60,a,1,1.221355,,,,,,,,1.221355,1,0,2,2,4,1,stimuli/blank.png,Pleasure,a,,,,,,,,
,,,,,,,,,,,,,test,2,001,female,2020-10-27_21h15.27.456,openIAT,2020.1.0rc3,Win32,60,a,1,0.716005,,,,,,,,0.716005,1,0,3,3,8,1,stimuli/blank.png,Joy,a,,,,,,,,
,,,,,,,,,,,,,test,2,001,female,2020-10-27_21h15.27.456,openIAT,2020.1.0rc3,Win32,60,l,1,0.89001,,,,,,,,0.89001,1,0,4,4,7,1,stimuli/blank.png,Evil,l,,,,,,,,
,,,,,,,,,,,,,test,2,001,female,2020-10-27_21h15.27.456,openIAT,2020.1.0rc3,Win32,60,l,1,0.28245,,,,,,,,0.28245,1,0,5,5,3,1,stimuli/blank.png,Hurt,l,,,,,,,,
,,,,,,,,,,,,,test,2,001,female,2020-10-27_21h15.27.456,openIAT,2020.1.0rc3,Win32,60,l,1,0.52232,,,,,,,,0.52232,1,0,6,6,5,1,stimuli/blank.png,Agony,l,,,,,,,,
,,,,,,,,,,,,,test,2,001,female,2020-10-27_21h15.27.456,openIAT,2020.1.0rc3,Win32,60,a,1,0.72643,,,,,,,,0.72643,1,0,7,7,0,1,stimuli/blank.png,Good,a,,,,,,,,
,,,,,,,,,,,,,test,2,001,female,2020-10-27_21h15.27.456,openIAT,2020.1.0rc3,Win32,60,l,1,0.723585,,,,,,,,0.723585,1,0,8,8,1,1,stimuli/blank.png,Bad,l,,,,,,,,
,,,,,,,,,,,,,test,2,001,female,2020-10-27_21h15.27.456,openIAT,2020.1.0rc3,Win32,60,l,1,0.532265,,,,,,,,0.532265,1,0,9,9,9,1,stimuli/blank.png,Nasty,l,,,,,,,,
,,,,,,,,,,,,,test,2,001,female,2020-10-27_21h15.27.456,openIAT,2020.1.0rc3,Win32,60,,,,,,,,,,,,,,,,,,,,,0,0,0,0,1,pos_neg_train.xlsx,"A = 
Positive","L = 
Negative"
,,,,,,,,,,,,,test,2,001,female,2020-10-27_21h15.27.456,openIAT,2020.1.0rc3,Win32,60,l,1,1.55916,,,,,,,,1.55916,1,0,0,0,3,1,stimuli/white_2.jpg,,l,,,,,,,,
,,,,,,,,,,,,,test,2,001,female,2020-10-27_21h15.27.456,openIAT,2020.1.0rc3,Win32,60,a,1,0.6517,,,,,,,,0.6517,1,0,1,1,8,1,stimuli/black_5.jpg,,a,,,,,,,,
,,,,,,,,,,,,,test,2,001,female,2020-10-27_21h15.27.456,openIAT,2020.1.0rc3,Win32,60,l,1,0.69713,,,,,,,,0.69713,1,0,2,2,1,1,stimuli/white_1.jpg,,l,,,,,,,,
,,,,,,,,,,,,,test,2,001,female,2020-10-27_21h15.27.456,openIAT,2020.1.0rc3,Win32,60,l,1,1.987985,,,,,,,,1.987985,1,0,3,3,5,1,stimuli/white_3.jpg,,l,,,,,,,,
,,,,,,,,,,,,,test,2,001,female,2020-10-27_21h15.27.456,openIAT,2020.1.0rc3,Win32,60,l,1,0.841315,,,,,,,,0.841315,1,0,4,4,9,1,stimuli/white_5.jpg,,l,,,,,,,,
,,,,,,,,,,,,,test,2,001,female,2020-10-27_21h15.27.456,openIAT,2020.1.0rc3,Win32,60,a,1,0.8682,,,,,,,,0.8682,1,0,5,5,2,1,stimuli/black_2.jpg,,a,,,,,,,,
,,,,,,,,,,,,,test,2,001,female,2020-10-27_21h15.27.456,openIAT,2020.1.0rc3,Win32,60,l,0,1.24384,,,,,,,,1.24384,0,0,6,6,6,1,stimuli/black_4.jpg,,a,,,,,,,,
