instr_done_touch.x,instr_done_touch.y,instr_done_touch.leftButton,instr_done_touch.midButton,instr_done_touch.rightButton,instr_done_touch.clicked_name,instruct_pages.thisRepN,instruct_pages.thisTrialN,instruct_pages.thisN,instruct_pages.thisIndex,instruct_pages.ran,pageN,instruct_text,participant,order,session,gender,date,expName,psychopyVersion,OS,frameRate,key_resp.keys,key_resp.corr,key_resp.rt,touch_resp.x,touch_resp.y,touch_resp.leftButton,touch_resp.midButton,touch_resp.rightButton,touch_resp.time,touch_resp.clicked_name,rt,corr,trials.thisRepN,trials.thisTrialN,trials.thisN,trials.thisIndex,trials.ran,stimImage,stimWord,CorrAns,blocks.thisRepN,blocks.thisTrialN,blocks.thisN,blocks.thisIndex,blocks.ran,conds_file,label_left,label_right
0.05,-0.37962963,1,0,0,instr_done_button,0,0,0,0,1,1,"You will be presented with words or images to classify into categories using either the 'A' or 'L' key. 
 
Try to go as fast as possible while making as few mistakes as possible. 
",tetyh,2,001,male,2024-09-19_13h03.06.304,openIAT,2020.1.0rc3,Win32,60,,,,,,,,,,,,,,,,,,,,,,,,,,,,
0.05462963,-0.390740741,1,0,0,instr_done_button,0,1,1,1,1,2,"Keep in mind: 
 
1) Labels at the top of the screen indicate which catogory goes with which key. 
 
2) Each word or image has a correct catogory classification 
 
3) Keep your index fingers on the A and L keys to enable a rapid response. 
 
4) The test gives no results if you go slow- please try to go as fast as possible 
",tetyh,2,001,male,2024-09-19_13h03.06.304,openIAT,2020.1.0rc3,Win32,60,,,,,,,,,,,,,,,,,,,,,,,,,,,,
,,,,,,,,,,,,,tetyh,2,001,male,2024-09-19_13h03.06.304,openIAT,2020.1.0rc3,Win32,60,a,1,3.3002,,,,,,,,3.3002,1,0,0,0,6,1,stimuli/blank.png,Love,a,,,,,,,,
,,,,,,,,,,,,,tetyh,2,001,male,2024-09-19_13h03.06.304,openIAT,2020.1.0rc3,Win32,60,l,1,2.1448,,,,,,,,2.1448,1,0,1,1,1,1,stimuli/blank.png,Bad,l,,,,,,,,
,,,,,,,,,,,,,tetyh,2,001,male,2024-09-19_13h03.06.304,openIAT,2020.1.0rc3,Win32,60,a,1,1.2033,,,,,,,,1.2033,1,0,2,2,2,1,stimuli/blank.png,Happy,a,,,,,,,,
,,,,,,,,,,,,,tetyh,2,001,male,2024-09-19_13h03.06.304,openIAT,2020.1.0rc3,Win32,60,a,1,0.8638,,,,,,,,0.8638,1,0,3,3,0,1,stimuli/blank.png,Good,a,,,,,,,,
,,,,,,,,,,,,,tetyh,2,001,male,2024-09-19_13h03.06.304,openIAT,2020.1.0rc3,Win32,60,a,1,0.7359,,,,,,,,0.7359,1,0,4,4,8,1,stimuli/blank.png,Joy,a,,,,,,,,
,,,,,,,,,,,,,tetyh,2,001,male,2024-09-19_13h03.06.304,openIAT,2020.1.0rc3,Win32,60,a,0,1.2669,,,,,,,,1.2669,0,0,5,5,9,1,stimuli/blank.png,Nasty,l,,,,,,,,
,,,,,,,,,,,,,tetyh,2,001,male,2024-09-19_13h03.06.304,openIAT,2020.1.0rc3,Win32,60,l,1,2.1733,,,,,,,,2.1733,1,0,6,6,3,1,stimuli/blank.png,Hurt,l,,,,,,,,
,,,,,,,,,,,,,tetyh,2,001,male,2024-09-19_13h03.06.304,openIAT,2020.1.0rc3,Win32,60,l,0,1.1122,,,,,,,,1.1122,0,0,7,7,4,1,stimuli/blank.png,Pleasure,a,,,,,,,,
,,,,,,,,,,,,,tetyh,2,001,male,2024-09-19_13h03.06.304,openIAT,2020.1.0rc3,Win32,60,l,1,1.4949,,,,,,,,1.4949,1,0,8,8,7,1,stimuli/blank.png,Evil,l,,,,,,,,
,,,,,,,,,,,,,tetyh,2,001,male,2024-09-19_13h03.06.304,openIAT,2020.1.0rc3,Win32,60,a,0,1.0006,,,,,,,,1.0006,0,0,9,9,5,1,stimuli/blank.png,Agony,l,,,,,,,,
,,,,,,,,,,,,,tetyh,2,001,male,2024-09-19_13h03.06.304,openIAT,2020.1.0rc3,Win32,60,,,,,,,,,,,,,,,,,,,,,0,0,0,0,1,pos_neg_train.xlsx,"A = 
Positive","L = 
Negative"
,,,,,,,,,,,,,tetyh,2,001,male,2024-09-19_13h03.06.304,openIAT,2020.1.0rc3,Win32,60,,0,,-0.432804233,-0.32010582,1,0,0,1.1488,button_left,1.1488,0,0,0,0,9,1,stimuli/white_5.jpg,,l,,,,,,,,
,,,,,,,,,,,,,tetyh,2,001,male,2024-09-19_13h03.06.304,openIAT,2020.1.0rc3,Win32,60,,0,,0.348148148,-0.32010582,1,0,0,0.249,button_right,0.249,1,0,1,1,1,1,stimuli/white_1.jpg,,l,,,,,,,,
,,,,,,,,,,,,,tetyh,2,001,male,2024-09-19_13h03.06.304,openIAT,2020.1.0rc3,Win32,60,,0,,0.369312169,-0.332804233,1,0,0,0.2829,button_right,0.2829,0,0,2,2,8,1,stimuli/black_5.jpg,,a,,,,,,,,
,,,,,,,,,,,,,tetyh,2,001,male,2024-09-19_13h03.06.304,openIAT,2020.1.0rc3,Win32,60,,0,,0.426455026,-0.334920635,1,0,0,0.148,button_right,0.148,0,0,3,3,4,1,stimuli/black_3.jpg,,a,,,,,,,,
,,,,,,,,,,,,,tetyh,2,001,male,2024-09-19_13h03.06.304,openIAT,2020.1.0rc3,Win32,60,,0,,0.428571429,-0.326455026,1,0,0,0.1147,button_right,0.1147,0,0,4,4,2,1,stimuli/black_2.jpg,,a,,,,,,,,
,,,,,,,,,,,,,tetyh,2,001,male,2024-09-19_13h03.06.304,openIAT,2020.1.0rc3,Win32,60,,0,,0.427513228,-0.335978836,1,0,0,0.032,button_right,0.032,1,0,5,5,7,1,stimuli/white_4.jpg,,l,,,,,,,,
,,,,,,,,,,,,,tetyh,2,001,male,2024-09-19_13h03.06.304,openIAT,2020.1.0rc3,Win32,60,,0,,0.426455026,-0.332804233,1,0,0,0.0981,button_right,0.0981,0,0,6,6,6,1,stimuli/black_4.jpg,,a,,,,,,,,
,,,,,,,,,,,,,tetyh,2,001,male,2024-09-19_13h03.06.304,openIAT,2020.1.0rc3,Win32,60,,0,,0.427513228,-0.32010582,1,0,0,0.0999,button_right,0.0999,0,0,7,7,0,1,stimuli/black_1.jpg,,a,,,,,,,,
,,,,,,,,,,,,,tetyh,2,001,male,2024-09-19_13h03.06.304,openIAT,2020.1.0rc3,Win32,60,,0,,0.427513228,-0.32010582,1,0,0,0.1819,button_right,0.1819,1,0,8,8,3,1,stimuli/white_2.jpg,,l,,,,,,,,
,,,,,,,,,,,,,tetyh,2,001,male,2024-09-19_13h03.06.304,openIAT,2020.1.0rc3,Win32,60,,0,,0.427513228,-0.32010582,1,0,0,0.0349,button_right,0.0349,1,0,9,9,5,1,stimuli/white_3.jpg,,l,,,,,,,,
,,,,,,,,,,,,,tetyh,2,001,male,2024-09-19_13h03.06.304,openIAT,2020.1.0rc3,Win32,60,,,,,,,,,,,,,,,,,,,,,0,1,1,1,1,incong_train.xlsx,"A = 
Black","L = 
White"
,,,,,,,,,,,,,tetyh,2,001,male,2024-09-19_13h03.06.304,openIAT,2020.1.0rc3,Win32,60,,0,,0.427513228,-0.32010582,1,0,0,0.1655,button_right,0.1655,1,0,0,0,7,1,stimuli/white_4.jpg,,l,,,,,,,,
,,,,,,,,,,,,,tetyh,2,001,male,2024-09-19_13h03.06.304,openIAT,2020.1.0rc3,Win32,60,,0,,0.427513228,-0.32010582,1,0,0,0.048,button_right,0.048,1,0,1,1,11,1,stimuli/blank.png,Bad,l,,,,,,,,
,,,,,,,,,,,,,tetyh,2,001,male,2024-09-19_13h03.06.304,openIAT,2020.1.0rc3,Win32,60,,0,,0.427513228,-0.32010582,1,0,0,0.097,button_right,0.097,1,0,2,2,5,1,stimuli/white_3.jpg,,l,,,,,,,,
,,,,,,,,,,,,,tetyh,2,001,male,2024-09-19_13h03.06.304,openIAT,2020.1.0rc3,Win32,60,,0,,0.427513228,-0.32010582,1,0,0,0.1647,button_right,0.1647,0,0,3,3,0,1,stimuli/black_1.jpg,,a,,,,,,,,
,,,,,,,,,,,,,tetyh,2,001,male,2024-09-19_13h03.06.304,openIAT,2020.1.0rc3,Win32,60,,0,,0.427513228,-0.32010582,1,0,0,0.0976,button_right,0.0976,0,0,4,4,10,1,stimuli/blank.png,Good,a,,,,,,,,
,,,,,,,,,,,,,tetyh,2,001,male,2024-09-19_13h03.06.304,openIAT,2020.1.0rc3,Win32,60,,0,,0.427513228,-0.32010582,1,0,0,0.4983,button_right,0.4983,0,0,5,5,2,1,stimuli/black_2.jpg,,a,,,,,,,,
