instr_done_touch.x,instr_done_touch.y,instr_done_touch.leftButton,instr_done_touch.midButton,instr_done_touch.rightButton,instr_done_touch.clicked_name,instruct_pages.thisRepN,instruct_pages.thisTrialN,instruct_pages.thisN,instruct_pages.thisIndex,instruct_pages.ran,pageN,instruct_text,participant,order,session,gender,date,expName,psychopyVersion,OS,frameRate,key_resp.keys,key_resp.corr,key_resp.rt,touch_resp.x,touch_resp.y,touch_resp.leftButton,touch_resp.midButton,touch_resp.rightButton,touch_resp.time,touch_resp.clicked_name,rt,corr,trials.thisRepN,trials.thisTrialN,trials.thisN,trials.thisIndex,trials.ran,stimImage,stimWord,CorrAns,blocks.thisRepN,blocks.thisTrialN,blocks.thisN,blocks.thisIndex,blocks.ran,conds_file,label_left,label_right
0.092222222,-0.384444444,1,0,0,instr_done_button,0,0,0,0,1,1,"You will be presented with words or images to classify into categories using either the 'A' or 'L' key. 
 
Try to go as fast as possible while making as few mistakes as possible. 
",uma,1,001,female,2023-08-08_17h23.51.383,openIAT,2020.1.0rc3,Win32,60,,,,,,,,,,,,,,,,,,,,,,,,,,,,
0.028888889,-0.378333333,1,0,0,instr_done_button,0,1,1,1,1,2,"Keep in mind: 
 
1) Labels at the top of the screen indicate which catogory goes with which key. 
 
2) Each word or image has a correct catogory classification 
 
3) Keep your index fingers on the A and L keys to enable a rapid response. 
 
4) The test gives no results if you go slow- please try to go as fast as possible 
",uma,1,001,female,2023-08-08_17h23.51.383,openIAT,2020.1.0rc3,Win32,60,,,,,,,,,,,,,,,,,,,,,,,,,,,,
,,,,,,,,,,,,,uma,1,001,female,2023-08-08_17h23.51.383,openIAT,2020.1.0rc3,Win32,60,l,1,1.3407,,,,,,,,1.3407,1,0,0,0,3,1,stimuli/blank.png,Hurt,l,,,,,,,,
,,,,,,,,,,,,,uma,1,001,female,2023-08-08_17h23.51.383,openIAT,2020.1.0rc3,Win32,60,l,1,0.7443,,,,,,,,0.7443,1,0,1,1,5,1,stimuli/blank.png,Agony,l,,,,,,,,
,,,,,,,,,,,,,uma,1,001,female,2023-08-08_17h23.51.383,openIAT,2020.1.0rc3,Win32,60,l,1,0.8116,,,,,,,,0.8116,1,0,2,2,9,1,stimuli/blank.png,Nasty,l,,,,,,,,
,,,,,,,,,,,,,uma,1,001,female,2023-08-08_17h23.51.383,openIAT,2020.1.0rc3,Win32,60,a,1,0.6616,,,,,,,,0.6616,1,0,3,3,6,1,stimuli/blank.png,Love,a,,,,,,,,
,,,,,,,,,,,,,uma,1,001,female,2023-08-08_17h23.51.383,openIAT,2020.1.0rc3,Win32,60,a,1,0.5787,,,,,,,,0.5787,1,0,4,4,4,1,stimuli/blank.png,Pleasure,a,,,,,,,,
,,,,,,,,,,,,,uma,1,001,female,2023-08-08_17h23.51.383,openIAT,2020.1.0rc3,Win32,60,l,1,0.6572,,,,,,,,0.6572,1,0,5,5,1,1,stimuli/blank.png,Bad,l,,,,,,,,
,,,,,,,,,,,,,uma,1,001,female,2023-08-08_17h23.51.383,openIAT,2020.1.0rc3,Win32,60,a,1,0.6694,,,,,,,,0.6694,1,0,6,6,8,1,stimuli/blank.png,Joy,a,,,,,,,,
,,,,,,,,,,,,,uma,1,001,female,2023-08-08_17h23.51.383,openIAT,2020.1.0rc3,Win32,60,a,1,0.5168,,,,,,,,0.5168,1,0,7,7,2,1,stimuli/blank.png,Happy,a,,,,,,,,
,,,,,,,,,,,,,uma,1,001,female,2023-08-08_17h23.51.383,openIAT,2020.1.0rc3,Win32,60,a,0,0.6852,,,,,,,,0.6852,0,0,8,8,7,1,stimuli/blank.png,Evil,l,,,,,,,,
,,,,,,,,,,,,,uma,1,001,female,2023-08-08_17h23.51.383,openIAT,2020.1.0rc3,Win32,60,a,1,0.5788,,,,,,,,0.5788,1,0,9,9,0,1,stimuli/blank.png,Good,a,,,,,,,,
,,,,,,,,,,,,,uma,1,001,female,2023-08-08_17h23.51.383,openIAT,2020.1.0rc3,Win32,60,,,,,,,,,,,,,,,,,,,,,0,0,0,0,1,pos_neg_train.xlsx,"A = 
Positive","L = 
Negative"
,,,,,,,,,,,,,uma,1,001,female,2023-08-08_17h23.51.383,openIAT,2020.1.0rc3,Win32,60,a,1,1.4612,,,,,,,,1.4612,1,0,0,0,5,1,stimuli/white_3.jpg,NaN,a,,,,,,,,
,,,,,,,,,,,,,uma,1,001,female,2023-08-08_17h23.51.383,openIAT,2020.1.0rc3,Win32,60,a,1,1.6107,,,,,,,,1.6107,1,0,1,1,3,1,stimuli/white_2.jpg,NaN,a,,,,,,,,
,,,,,,,,,,,,,uma,1,001,female,2023-08-08_17h23.51.383,openIAT,2020.1.0rc3,Win32,60,l,1,0.7033,,,,,,,,0.7033,1,0,2,2,0,1,stimuli/black_1.jpg,NaN,l,,,,,,,,
,,,,,,,,,,,,,uma,1,001,female,2023-08-08_17h23.51.383,openIAT,2020.1.0rc3,Win32,60,a,1,0.7137,,,,,,,,0.7137,1,0,3,3,7,1,stimuli/white_4.jpg,NaN,a,,,,,,,,
,,,,,,,,,,,,,uma,1,001,female,2023-08-08_17h23.51.383,openIAT,2020.1.0rc3,Win32,60,l,1,0.5534,,,,,,,,0.5534,1,0,4,4,8,1,stimuli/black_5.jpg,NaN,l,,,,,,,,
,,,,,,,,,,,,,uma,1,001,female,2023-08-08_17h23.51.383,openIAT,2020.1.0rc3,Win32,60,l,1,0.5996,,,,,,,,0.5996,1,0,5,5,2,1,stimuli/black_2.jpg,NaN,l,,,,,,,,
,,,,,,,,,,,,,uma,1,001,female,2023-08-08_17h23.51.383,openIAT,2020.1.0rc3,Win32,60,a,1,0.6772,,,,,,,,0.6772,1,0,6,6,1,1,stimuli/white_1.jpg,NaN,a,,,,,,,,
,,,,,,,,,,,,,uma,1,001,female,2023-08-08_17h23.51.383,openIAT,2020.1.0rc3,Win32,60,a,1,0.9123,,,,,,,,0.9123,1,0,7,7,9,1,stimuli/white_5.jpg,NaN,a,,,,,,,,
,,,,,,,,,,,,,uma,1,001,female,2023-08-08_17h23.51.383,openIAT,2020.1.0rc3,Win32,60,l,1,0.546,,,,,,,,0.546,1,0,8,8,6,1,stimuli/black_4.jpg,NaN,l,,,,,,,,
,,,,,,,,,,,,,uma,1,001,female,2023-08-08_17h23.51.383,openIAT,2020.1.0rc3,Win32,60,l,1,0.578,,,,,,,,0.578,1,0,9,9,4,1,stimuli/black_3.jpg,NaN,l,,,,,,,,
,,,,,,,,,,,,,uma,1,001,female,2023-08-08_17h23.51.383,openIAT,2020.1.0rc3,Win32,60,,,,,,,,,,,,,,,,,,,,,0,1,1,1,1,cong_train.xlsx,"A = 
White","L = 
Black"
,,,,,,,,,,,,,uma,1,001,female,2023-08-08_17h23.51.383,openIAT,2020.1.0rc3,Win32,60,a,1,0.8072,,,,,,,,0.8072,1,0,0,0,1,1,stimuli/white_1.jpg,NaN,a,,,,,,,,
,,,,,,,,,,,,,uma,1,001,female,2023-08-08_17h23.51.383,openIAT,2020.1.0rc3,Win32,60,a,1,0.6008,,,,,,,,0.6008,1,0,1,1,7,1,stimuli/white_4.jpg,NaN,a,,,,,,,,
,,,,,,,,,,,,,uma,1,001,female,2023-08-08_17h23.51.383,openIAT,2020.1.0rc3,Win32,60,a,1,0.882,,,,,,,,0.882,1,0,2,2,16,1,stimuli/blank.png,Love,a,,,,,,,,
,,,,,,,,,,,,,uma,1,001,female,2023-08-08_17h23.51.383,openIAT,2020.1.0rc3,Win32,60,l,1,0.786,,,,,,,,0.786,1,0,3,3,0,1,stimuli/black_1.jpg,NaN,l,,,,,,,,
,,,,,,,,,,,,,uma,1,001,female,2023-08-08_17h23.51.383,openIAT,2020.1.0rc3,Win32,60,l,1,0.6429,,,,,,,,0.6429,1,0,4,4,17,1,stimuli/blank.png,Evil,l,,,,,,,,
,,,,,,,,,,,,,uma,1,001,female,2023-08-08_17h23.51.383,openIAT,2020.1.0rc3,Win32,60,a,1,0.5521,,,,,,,,0.5521,1,0,5,5,12,1,stimuli/blank.png,Happy,a,,,,,,,,
,,,,,,,,,,,,,uma,1,001,female,2023-08-08_17h23.51.383,openIAT,2020.1.0rc3,Win32,60,a,1,0.5887,,,,,,,,0.5887,1,0,6,6,9,1,stimuli/white_5.jpg,NaN,a,,,,,,,,
,,,,,,,,,,,,,uma,1,001,female,2023-08-08_17h23.51.383,openIAT,2020.1.0rc3,Win32,60,a,1,0.5747,,,,,,,,0.5747,1,0,7,7,5,1,stimuli/white_3.jpg,NaN,a,,,,,,,,
,,,,,,,,,,,,,uma,1,001,female,2023-08-08_17h23.51.383,openIAT,2020.1.0rc3,Win32,60,l,1,0.6505,,,,,,,,0.6505,1,0,8,8,11,1,stimuli/blank.png,Bad,l,,,,,,,,
,,,,,,,,,,,,,uma,1,001,female,2023-08-08_17h23.51.383,openIAT,2020.1.0rc3,Win32,60,l,1,0.6707,,,,,,,,0.6707,1,0,9,9,13,1,stimuli/blank.png,Hurt,l,,,,,,,,
,,,,,,,,,,,,,uma,1,001,female,2023-08-08_17h23.51.383,openIAT,2020.1.0rc3,Win32,60,a,1,0.5149,,,,,,,,0.5149,1,0,10,10,3,1,stimuli/white_2.jpg,NaN,a,,,,,,,,
,,,,,,,,,,,,,uma,1,001,female,2023-08-08_17h23.51.383,openIAT,2020.1.0rc3,Win32,60,l,1,0.8562,,,,,,,,0.8562,1,0,11,11,19,1,stimuli/blank.png,Nasty,l,,,,,,,,
,,,,,,,,,,,,,uma,1,001,female,2023-08-08_17h23.51.383,openIAT,2020.1.0rc3,Win32,60,l,1,0.5596,,,,,,,,0.5596,1,0,12,12,2,1,stimuli/black_2.jpg,NaN,l,,,,,,,,
,,,,,,,,,,,,,uma,1,001,female,2023-08-08_17h23.51.383,openIAT,2020.1.0rc3,Win32,60,a,1,0.5642,,,,,,,,0.5642,1,0,13,13,10,1,stimuli/blank.png,Good,a,,,,,,,,
,,,,,,,,,,,,,uma,1,001,female,2023-08-08_17h23.51.383,openIAT,2020.1.0rc3,Win32,60,l,1,0.571,,,,,,,,0.571,1,0,14,14,15,1,stimuli/blank.png,Agony,l,,,,,,,,
,,,,,,,,,,,,,uma,1,001,female,2023-08-08_17h23.51.383,openIAT,2020.1.0rc3,Win32,60,l,1,4.0445,,,,,,,,4.0445,1,0,15,15,8,1,stimuli/black_5.jpg,NaN,l,,,,,,,,
,,,,,,,,,,,,,uma,1,001,female,2023-08-08_17h23.51.383,openIAT,2020.1.0rc3,Win32,60,l,1,0.5792,,,,,,,,0.5792,1,0,16,16,6,1,stimuli/black_4.jpg,NaN,l,,,,,,,,
,,,,,,,,,,,,,uma,1,001,female,2023-08-08_17h23.51.383,openIAT,2020.1.0rc3,Win32,60,a,1,0.6102,,,,,,,,0.6102,1,0,17,17,14,1,stimuli/blank.png,Pleasure,a,,,,,,,,
,,,,,,,,,,,,,uma,1,001,female,2023-08-08_17h23.51.383,openIAT,2020.1.0rc3,Win32,60,a,1,0.6536,,,,,,,,0.6536,1,0,18,18,18,1,stimuli/blank.png,Joy,a,,,,,,,,
,,,,,,,,,,,,,uma,1,001,female,2023-08-08_17h23.51.383,openIAT,2020.1.0rc3,Win32,60,l,1,0.5269,,,,,,,,0.5269,1,0,19,19,4,1,stimuli/black_3.jpg,NaN,l,,,,,,,,
,,,,,,,,,,,,,uma,1,001,female,2023-08-08_17h23.51.383,openIAT,2020.1.0rc3,Win32,60,,,,,,,,,,,,,,,,,,,,,0,2,2,2,1,cong_test.xlsx,"A = 
White or 
Positive","L = 
Black or 
Negative"
,,,,,,,,,,,,,uma,1,001,female,2023-08-08_17h23.51.383,openIAT,2020.1.0rc3,Win32,60,a,1,0.6043,,,,,,,,0.6043,1,0,0,0,6,1,stimuli/black_4.jpg,,a,,,,,,,,
,,,,,,,,,,,,,uma,1,001,female,2023-08-08_17h23.51.383,openIAT,2020.1.0rc3,Win32,60,a,1,0.3983,,,,,,,,0.3983,1,0,1,1,4,1,stimuli/black_3.jpg,,a,,,,,,,,
,,,,,,,,,,,,,uma,1,001,female,2023-08-08_17h23.51.383,openIAT,2020.1.0rc3,Win32,60,a,1,0.4351,,,,,,,,0.4351,1,0,2,2,8,1,stimuli/black_5.jpg,,a,,,,,,,,
,,,,,,,,,,,,,uma,1,001,female,2023-08-08_17h23.51.383,openIAT,2020.1.0rc3,Win32,60,l,1,0.5359,,,,,,,,0.5359,1,0,3,3,7,1,stimuli/white_4.jpg,,l,,,,,,,,
,,,,,,,,,,,,,uma,1,001,female,2023-08-08_17h23.51.383,openIAT,2020.1.0rc3,Win32,60,l,1,0.5781,,,,,,,,0.5781,1,0,4,4,3,1,stimuli/white_2.jpg,,l,,,,,,,,
,,,,,,,,,,,,,uma,1,001,female,2023-08-08_17h23.51.383,openIAT,2020.1.0rc3,Win32,60,l,1,0.5831,,,,,,,,0.5831,1,0,5,5,9,1,stimuli/white_5.jpg,,l,,,,,,,,
,,,,,,,,,,,,,uma,1,001,female,2023-08-08_17h23.51.383,openIAT,2020.1.0rc3,Win32,60,a,1,0.5957,,,,,,,,0.5957,1,0,6,6,0,1,stimuli/black_1.jpg,,a,,,,,,,,
,,,,,,,,,,,,,uma,1,001,female,2023-08-08_17h23.51.383,openIAT,2020.1.0rc3,Win32,60,a,1,0.498,,,,,,,,0.498,1,0,7,7,2,1,stimuli/black_2.jpg,,a,,,,,,,,
,,,,,,,,,,,,,uma,1,001,female,2023-08-08_17h23.51.383,openIAT,2020.1.0rc3,Win32,60,l,1,0.5251,,,,,,,,0.5251,1,0,8,8,5,1,stimuli/white_3.jpg,,l,,,,,,,,
,,,,,,,,,,,,,uma,1,001,female,2023-08-08_17h23.51.383,openIAT,2020.1.0rc3,Win32,60,l,1,1.0513,,,,,,,,1.0513,1,0,9,9,1,1,stimuli/white_1.jpg,,l,,,,,,,,
,,,,,,,,,,,,,uma,1,001,female,2023-08-08_17h23.51.383,openIAT,2020.1.0rc3,Win32,60,,,,,,,,,,,,,,,,,,,,,0,3,3,3,1,incong_train.xlsx,"A = 
Black","L = 
White"
,,,,,,,,,,,,,uma,1,001,female,2023-08-08_17h23.51.383,openIAT,2020.1.0rc3,Win32,60,l,1,1.6239,,,,,,,,1.6239,1,0,0,0,15,1,stimuli/blank.png,Agony,l,,,,,,,,
,,,,,,,,,,,,,uma,1,001,female,2023-08-08_17h23.51.383,openIAT,2020.1.0rc3,Win32,60,a,1,0.6773,,,,,,,,0.6773,1,0,1,1,0,1,stimuli/black_1.jpg,,a,,,,,,,,
,,,,,,,,,,,,,uma,1,001,female,2023-08-08_17h23.51.383,openIAT,2020.1.0rc3,Win32,60,a,1,0.4615,,,,,,,,0.4615,1,0,2,2,4,1,stimuli/black_3.jpg,,a,,,,,,,,
,,,,,,,,,,,,,uma,1,001,female,2023-08-08_17h23.51.383,openIAT,2020.1.0rc3,Win32,60,a,1,0.8634,,,,,,,,0.8634,1,0,3,3,10,1,stimuli/blank.png,Good,a,,,,,,,,
,,,,,,,,,,,,,uma,1,001,female,2023-08-08_17h23.51.383,openIAT,2020.1.0rc3,Win32,60,l,1,0.4964,,,,,,,,0.4964,1,0,4,4,17,1,stimuli/blank.png,Evil,l,,,,,,,,
,,,,,,,,,,,,,uma,1,001,female,2023-08-08_17h23.51.383,openIAT,2020.1.0rc3,Win32,60,a,1,0.504,,,,,,,,0.504,1,0,5,5,12,1,stimuli/blank.png,Happy,a,,,,,,,,
,,,,,,,,,,,,,uma,1,001,female,2023-08-08_17h23.51.383,openIAT,2020.1.0rc3,Win32,60,a,1,0.4941,,,,,,,,0.4941,1,0,6,6,6,1,stimuli/black_4.jpg,,a,,,,,,,,
,,,,,,,,,,,,,uma,1,001,female,2023-08-08_17h23.51.383,openIAT,2020.1.0rc3,Win32,60,a,1,0.5945,,,,,,,,0.5945,1,0,7,7,18,1,stimuli/blank.png,Joy,a,,,,,,,,
,,,,,,,,,,,,,uma,1,001,female,2023-08-08_17h23.51.383,openIAT,2020.1.0rc3,Win32,60,l,1,0.4673,,,,,,,,0.4673,1,0,8,8,1,1,stimuli/white_1.jpg,,l,,,,,,,,
,,,,,,,,,,,,,uma,1,001,female,2023-08-08_17h23.51.383,openIAT,2020.1.0rc3,Win32,60,a,1,0.5625,,,,,,,,0.5625,1,0,9,9,8,1,stimuli/black_5.jpg,,a,,,,,,,,
,,,,,,,,,,,,,uma,1,001,female,2023-08-08_17h23.51.383,openIAT,2020.1.0rc3,Win32,60,l,1,0.5455,,,,,,,,0.5455,1,0,10,10,9,1,stimuli/white_5.jpg,,l,,,,,,,,
,,,,,,,,,,,,,uma,1,001,female,2023-08-08_17h23.51.383,openIAT,2020.1.0rc3,Win32,60,l,1,0.5805,,,,,,,,0.5805,1,0,11,11,5,1,stimuli/white_3.jpg,,l,,,,,,,,
,,,,,,,,,,,,,uma,1,001,female,2023-08-08_17h23.51.383,openIAT,2020.1.0rc3,Win32,60,l,1,0.5424,,,,,,,,0.5424,1,0,12,12,3,1,stimuli/white_2.jpg,,l,,,,,,,,
,,,,,,,,,,,,,uma,1,001,female,2023-08-08_17h23.51.383,openIAT,2020.1.0rc3,Win32,60,l,1,0.5345,,,,,,,,0.5345,1,0,13,13,7,1,stimuli/white_4.jpg,,l,,,,,,,,
,,,,,,,,,,,,,uma,1,001,female,2023-08-08_17h23.51.383,openIAT,2020.1.0rc3,Win32,60,l,1,0.5656,,,,,,,,0.5656,1,0,14,14,11,1,stimuli/blank.png,Bad,l,,,,,,,,
,,,,,,,,,,,,,uma,1,001,female,2023-08-08_17h23.51.383,openIAT,2020.1.0rc3,Win32,60,a,1,0.643,,,,,,,,0.643,1,0,15,15,14,1,stimuli/blank.png,Pleasure,a,,,,,,,,
,,,,,,,,,,,,,uma,1,001,female,2023-08-08_17h23.51.383,openIAT,2020.1.0rc3,Win32,60,l,1,0.6037,,,,,,,,0.6037,1,0,16,16,19,1,stimuli/blank.png,Nasty,l,,,,,,,,
,,,,,,,,,,,,,uma,1,001,female,2023-08-08_17h23.51.383,openIAT,2020.1.0rc3,Win32,60,l,1,0.5505,,,,,,,,0.5505,1,0,17,17,13,1,stimuli/blank.png,Hurt,l,,,,,,,,
,,,,,,,,,,,,,uma,1,001,female,2023-08-08_17h23.51.383,openIAT,2020.1.0rc3,Win32,60,a,1,0.6631,,,,,,,,0.6631,1,0,18,18,16,1,stimuli/blank.png,Love,a,,,,,,,,
,,,,,,,,,,,,,uma,1,001,female,2023-08-08_17h23.51.383,openIAT,2020.1.0rc3,Win32,60,a,1,0.9042,,,,,,,,0.9042,1,0,19,19,2,1,stimuli/black_2.jpg,,a,,,,,,,,
