instr_done_touch.x,instr_done_touch.y,instr_done_touch.leftButton,instr_done_touch.midButton,instr_done_touch.rightButton,instr_done_touch.clicked_name,instruct_pages.thisRepN,instruct_pages.thisTrialN,instruct_pages.thisN,instruct_pages.thisIndex,instruct_pages.ran,pageN,instruct_text,participant,order,session,gender,date,expName,psychopyVersion,OS,frameRate,key_resp.keys,key_resp.corr,key_resp.rt,touch_resp.x,touch_resp.y,touch_resp.leftButton,touch_resp.midButton,touch_resp.rightButton,touch_resp.time,touch_resp.clicked_name,rt,corr,trials.thisRepN,trials.thisTrialN,trials.thisN,trials.thisIndex,trials.ran,stimImage,stimWord,CorrAns,blocks.thisRepN,blocks.thisTrialN,blocks.thisN,blocks.thisIndex,blocks.ran,conds_file,label_left,label_right
0.039930556,-0.402777778,1,0,0,instr_done_button,0,0,0,0,1,1,"You will be presented with words or images to classify into categories using either the 'A' or 'L' key. 
 
Try to go as fast as possible while making as few mistakes as possible. 
",uzma,1,001,female,2021-03-30_14h17.18.321,openIAT,2020.1.0rc3,Win32,60,,,,,,,,,,,,,,,,,,,,,,,,,,,,
0.15625,-0.388888889,1,0,0,instr_done_button,0,1,1,1,1,2,"Keep in mind: 
 
1) Labels at the top of the screen indicate which catogory goes with which key. 
 
2) Each word or image has a correct catogory classification 
 
3) Keep your index fingers on the A and L keys to enable a rapid response. 
 
4) The test gives no results if you go slow- please try to go as fast as possible 
",uzma,1,001,female,2021-03-30_14h17.18.321,openIAT,2020.1.0rc3,Win32,60,,,,,,,,,,,,,,,,,,,,,,,,,,,,
,,,,,,,,,,,,,uzma,1,001,female,2021-03-30_14h17.18.321,openIAT,2020.1.0rc3,Win32,60,a,1,2.56254,,,,,,,,2.56254,1,0,0,0,8,1,stimuli/blank.png,Joy,a,,,,,,,,
,,,,,,,,,,,,,uzma,1,001,female,2021-03-30_14h17.18.321,openIAT,2020.1.0rc3,Win32,60,l,1,0.722185,,,,,,,,0.722185,1,0,1,1,3,1,stimuli/blank.png,Hurt,l,,,,,,,,
,,,,,,,,,,,,,uzma,1,001,female,2021-03-30_14h17.18.321,openIAT,2020.1.0rc3,Win32,60,l,1,0.86258,,,,,,,,0.86258,1,0,2,2,5,1,stimuli/blank.png,Agony,l,,,,,,,,
,,,,,,,,,,,,,uzma,1,001,female,2021-03-30_14h17.18.321,openIAT,2020.1.0rc3,Win32,60,a,1,0.52813,,,,,,,,0.52813,1,0,3,3,4,1,stimuli/blank.png,Pleasure,a,,,,,,,,
,,,,,,,,,,,,,uzma,1,001,female,2021-03-30_14h17.18.321,openIAT,2020.1.0rc3,Win32,60,a,1,0.539695,,,,,,,,0.539695,1,0,4,4,0,1,stimuli/blank.png,Good,a,,,,,,,,
,,,,,,,,,,,,,uzma,1,001,female,2021-03-30_14h17.18.321,openIAT,2020.1.0rc3,Win32,60,a,1,0.48988,,,,,,,,0.48988,1,0,5,5,6,1,stimuli/blank.png,Love,a,,,,,,,,
,,,,,,,,,,,,,uzma,1,001,female,2021-03-30_14h17.18.321,openIAT,2020.1.0rc3,Win32,60,l,1,0.515565,,,,,,,,0.515565,1,0,6,6,7,1,stimuli/blank.png,Evil,l,,,,,,,,
,,,,,,,,,,,,,uzma,1,001,female,2021-03-30_14h17.18.321,openIAT,2020.1.0rc3,Win32,60,a,1,0.564265,,,,,,,,0.564265,1,0,7,7,2,1,stimuli/blank.png,Happy,a,,,,,,,,
,,,,,,,,,,,,,uzma,1,001,female,2021-03-30_14h17.18.321,openIAT,2020.1.0rc3,Win32,60,l,1,0.616975,,,,,,,,0.616975,1,0,8,8,9,1,stimuli/blank.png,Nasty,l,,,,,,,,
,,,,,,,,,,,,,uzma,1,001,female,2021-03-30_14h17.18.321,openIAT,2020.1.0rc3,Win32,60,l,1,0.65488,,,,,,,,0.65488,1,0,9,9,1,1,stimuli/blank.png,Bad,l,,,,,,,,
,,,,,,,,,,,,,uzma,1,001,female,2021-03-30_14h17.18.321,openIAT,2020.1.0rc3,Win32,60,,,,,,,,,,,,,,,,,,,,,0,0,0,0,1,pos_neg_train.xlsx,"A = 
Positive","L = 
Negative"
,,,,,,,,,,,,,uzma,1,001,female,2021-03-30_14h17.18.321,openIAT,2020.1.0rc3,Win32,60,a,1,1.56719,,,,,,,,1.56719,1,0,0,0,5,1,stimuli/white_3.jpg,NaN,a,,,,,,,,
,,,,,,,,,,,,,uzma,1,001,female,2021-03-30_14h17.18.321,openIAT,2020.1.0rc3,Win32,60,l,1,0.75348,,,,,,,,0.75348,1,0,1,1,8,1,stimuli/black_5.jpg,NaN,l,,,,,,,,
,,,,,,,,,,,,,uzma,1,001,female,2021-03-30_14h17.18.321,openIAT,2020.1.0rc3,Win32,60,l,1,0.67397,,,,,,,,0.67397,1,0,2,2,6,1,stimuli/black_4.jpg,NaN,l,,,,,,,,
,,,,,,,,,,,,,uzma,1,001,female,2021-03-30_14h17.18.321,openIAT,2020.1.0rc3,Win32,60,l,1,0.638825,,,,,,,,0.638825,1,0,3,3,2,1,stimuli/black_2.jpg,NaN,l,,,,,,,,
,,,,,,,,,,,,,uzma,1,001,female,2021-03-30_14h17.18.321,openIAT,2020.1.0rc3,Win32,60,l,1,0.406165,,,,,,,,0.406165,1,0,4,4,0,1,stimuli/black_1.jpg,NaN,l,,,,,,,,
,,,,,,,,,,,,,uzma,1,001,female,2021-03-30_14h17.18.321,openIAT,2020.1.0rc3,Win32,60,l,0,0.46582,,,,,,,,0.46582,0,0,5,5,7,1,stimuli/white_4.jpg,NaN,a,,,,,,,,
,,,,,,,,,,,,,uzma,1,001,female,2021-03-30_14h17.18.321,openIAT,2020.1.0rc3,Win32,60,a,1,0.64136,,,,,,,,0.64136,1,0,6,6,9,1,stimuli/white_5.jpg,NaN,a,,,,,,,,
,,,,,,,,,,,,,uzma,1,001,female,2021-03-30_14h17.18.321,openIAT,2020.1.0rc3,Win32,60,l,1,0.58333,,,,,,,,0.58333,1,0,7,7,4,1,stimuli/black_3.jpg,NaN,l,,,,,,,,
,,,,,,,,,,,,,uzma,1,001,female,2021-03-30_14h17.18.321,openIAT,2020.1.0rc3,Win32,60,a,1,0.673415,,,,,,,,0.673415,1,0,8,8,3,1,stimuli/white_2.jpg,NaN,a,,,,,,,,
,,,,,,,,,,,,,uzma,1,001,female,2021-03-30_14h17.18.321,openIAT,2020.1.0rc3,Win32,60,a,1,0.68598,,,,,,,,0.68598,1,0,9,9,1,1,stimuli/white_1.jpg,NaN,a,,,,,,,,
,,,,,,,,,,,,,uzma,1,001,female,2021-03-30_14h17.18.321,openIAT,2020.1.0rc3,Win32,60,,,,,,,,,,,,,,,,,,,,,0,1,1,1,1,cong_train.xlsx,"A = 
White","L = 
Black"
,,,,,,,,,,,,,uzma,1,001,female,2021-03-30_14h17.18.321,openIAT,2020.1.0rc3,Win32,60,a,1,0.742415,,,,,,,,0.742415,1,0,0,0,7,1,stimuli/white_4.jpg,NaN,a,,,,,,,,
,,,,,,,,,,,,,uzma,1,001,female,2021-03-30_14h17.18.321,openIAT,2020.1.0rc3,Win32,60,a,1,0.57447,,,,,,,,0.57447,1,0,1,1,5,1,stimuli/white_3.jpg,NaN,a,,,,,,,,
,,,,,,,,,,,,,uzma,1,001,female,2021-03-30_14h17.18.321,openIAT,2020.1.0rc3,Win32,60,a,1,0.938735,,,,,,,,0.938735,1,0,2,2,10,1,stimuli/blank.png,Good,a,,,,,,,,
,,,,,,,,,,,,,uzma,1,001,female,2021-03-30_14h17.18.321,openIAT,2020.1.0rc3,Win32,60,l,1,0.662305,,,,,,,,0.662305,1,0,3,3,13,1,stimuli/blank.png,Hurt,l,,,,,,,,
,,,,,,,,,,,,,uzma,1,001,female,2021-03-30_14h17.18.321,openIAT,2020.1.0rc3,Win32,60,a,1,1.249185,,,,,,,,1.249185,1,0,4,4,1,1,stimuli/white_1.jpg,NaN,a,,,,,,,,
,,,,,,,,,,,,,uzma,1,001,female,2021-03-30_14h17.18.321,openIAT,2020.1.0rc3,Win32,60,a,1,0.595465,,,,,,,,0.595465,1,0,5,5,14,1,stimuli/blank.png,Pleasure,a,,,,,,,,
,,,,,,,,,,,,,uzma,1,001,female,2021-03-30_14h17.18.321,openIAT,2020.1.0rc3,Win32,60,l,1,0.575115,,,,,,,,0.575115,1,0,6,6,15,1,stimuli/blank.png,Agony,l,,,,,,,,
,,,,,,,,,,,,,uzma,1,001,female,2021-03-30_14h17.18.321,openIAT,2020.1.0rc3,Win32,60,l,1,1.113475,,,,,,,,1.113475,1,0,7,7,4,1,stimuli/black_3.jpg,NaN,l,,,,,,,,
,,,,,,,,,,,,,uzma,1,001,female,2021-03-30_14h17.18.321,openIAT,2020.1.0rc3,Win32,60,a,1,0.577305,,,,,,,,0.577305,1,0,8,8,18,1,stimuli/blank.png,Joy,a,,,,,,,,
,,,,,,,,,,,,,uzma,1,001,female,2021-03-30_14h17.18.321,openIAT,2020.1.0rc3,Win32,60,l,1,0.609205,,,,,,,,0.609205,1,0,9,9,19,1,stimuli/blank.png,Nasty,l,,,,,,,,
,,,,,,,,,,,,,uzma,1,001,female,2021-03-30_14h17.18.321,openIAT,2020.1.0rc3,Win32,60,l,1,0.651295,,,,,,,,0.651295,1,0,10,10,6,1,stimuli/black_4.jpg,NaN,l,,,,,,,,
,,,,,,,,,,,,,uzma,1,001,female,2021-03-30_14h17.18.321,openIAT,2020.1.0rc3,Win32,60,l,1,0.55944,,,,,,,,0.55944,1,0,11,11,11,1,stimuli/blank.png,Bad,l,,,,,,,,
,,,,,,,,,,,,,uzma,1,001,female,2021-03-30_14h17.18.321,openIAT,2020.1.0rc3,Win32,60,l,0,0.531035,,,,,,,,0.531035,0,0,12,12,16,1,stimuli/blank.png,Love,a,,,,,,,,
,,,,,,,,,,,,,uzma,1,001,female,2021-03-30_14h17.18.321,openIAT,2020.1.0rc3,Win32,60,a,1,0.57645,,,,,,,,0.57645,1,0,13,13,9,1,stimuli/white_5.jpg,NaN,a,,,,,,,,
,,,,,,,,,,,,,uzma,1,001,female,2021-03-30_14h17.18.321,openIAT,2020.1.0rc3,Win32,60,l,1,0.62994,,,,,,,,0.62994,1,0,14,14,17,1,stimuli/blank.png,Evil,l,,,,,,,,
,,,,,,,,,,,,,uzma,1,001,female,2021-03-30_14h17.18.321,openIAT,2020.1.0rc3,Win32,60,a,1,0.594175,,,,,,,,0.594175,1,0,15,15,12,1,stimuli/blank.png,Happy,a,,,,,,,,
,,,,,,,,,,,,,uzma,1,001,female,2021-03-30_14h17.18.321,openIAT,2020.1.0rc3,Win32,60,a,1,0.642545,,,,,,,,0.642545,1,0,16,16,3,1,stimuli/white_2.jpg,NaN,a,,,,,,,,
,,,,,,,,,,,,,uzma,1,001,female,2021-03-30_14h17.18.321,openIAT,2020.1.0rc3,Win32,60,l,1,0.708395,,,,,,,,0.708395,1,0,17,17,0,1,stimuli/black_1.jpg,NaN,l,,,,,,,,
,,,,,,,,,,,,,uzma,1,001,female,2021-03-30_14h17.18.321,openIAT,2020.1.0rc3,Win32,60,l,1,0.595475,,,,,,,,0.595475,1,0,18,18,8,1,stimuli/black_5.jpg,NaN,l,,,,,,,,
,,,,,,,,,,,,,uzma,1,001,female,2021-03-30_14h17.18.321,openIAT,2020.1.0rc3,Win32,60,l,1,0.66103,,,,,,,,0.66103,1,0,19,19,2,1,stimuli/black_2.jpg,NaN,l,,,,,,,,
,,,,,,,,,,,,,uzma,1,001,female,2021-03-30_14h17.18.321,openIAT,2020.1.0rc3,Win32,60,,,,,,,,,,,,,,,,,,,,,0,2,2,2,1,cong_test.xlsx,"A = 
White or 
Positive","L = 
Black or 
Negative"
,,,,,,,,,,,,,uzma,1,001,female,2021-03-30_14h17.18.321,openIAT,2020.1.0rc3,Win32,60,a,1,0.76758,,,,,,,,0.76758,1,0,0,0,8,1,stimuli/black_5.jpg,,a,,,,,,,,
,,,,,,,,,,,,,uzma,1,001,female,2021-03-30_14h17.18.321,openIAT,2020.1.0rc3,Win32,60,l,1,0.531875,,,,,,,,0.531875,1,0,1,1,3,1,stimuli/white_2.jpg,,l,,,,,,,,
,,,,,,,,,,,,,uzma,1,001,female,2021-03-30_14h17.18.321,openIAT,2020.1.0rc3,Win32,60,a,1,0.49368,,,,,,,,0.49368,1,0,2,2,0,1,stimuli/black_1.jpg,,a,,,,,,,,
,,,,,,,,,,,,,uzma,1,001,female,2021-03-30_14h17.18.321,openIAT,2020.1.0rc3,Win32,60,a,1,0.51537,,,,,,,,0.51537,1,0,3,3,6,1,stimuli/black_4.jpg,,a,,,,,,,,
,,,,,,,,,,,,,uzma,1,001,female,2021-03-30_14h17.18.321,openIAT,2020.1.0rc3,Win32,60,a,1,0.4324,,,,,,,,0.4324,1,0,4,4,4,1,stimuli/black_3.jpg,,a,,,,,,,,
,,,,,,,,,,,,,uzma,1,001,female,2021-03-30_14h17.18.321,openIAT,2020.1.0rc3,Win32,60,l,1,0.61733,,,,,,,,0.61733,1,0,5,5,5,1,stimuli/white_3.jpg,,l,,,,,,,,
,,,,,,,,,,,,,uzma,1,001,female,2021-03-30_14h17.18.321,openIAT,2020.1.0rc3,Win32,60,a,1,0.502365,,,,,,,,0.502365,1,0,6,6,2,1,stimuli/black_2.jpg,,a,,,,,,,,
,,,,,,,,,,,,,uzma,1,001,female,2021-03-30_14h17.18.321,openIAT,2020.1.0rc3,Win32,60,l,1,0.724835,,,,,,,,0.724835,1,0,7,7,1,1,stimuli/white_1.jpg,,l,,,,,,,,
,,,,,,,,,,,,,uzma,1,001,female,2021-03-30_14h17.18.321,openIAT,2020.1.0rc3,Win32,60,l,1,0.565775,,,,,,,,0.565775,1,0,8,8,9,1,stimuli/white_5.jpg,,l,,,,,,,,
,,,,,,,,,,,,,uzma,1,001,female,2021-03-30_14h17.18.321,openIAT,2020.1.0rc3,Win32,60,l,1,0.510555,,,,,,,,0.510555,1,0,9,9,7,1,stimuli/white_4.jpg,,l,,,,,,,,
,,,,,,,,,,,,,uzma,1,001,female,2021-03-30_14h17.18.321,openIAT,2020.1.0rc3,Win32,60,,,,,,,,,,,,,,,,,,,,,0,3,3,3,1,incong_train.xlsx,"A = 
Black","L = 
White"
,,,,,,,,,,,,,uzma,1,001,female,2021-03-30_14h17.18.321,openIAT,2020.1.0rc3,Win32,60,l,0,1.51624,,,,,,,,1.51624,0,0,0,0,12,1,stimuli/blank.png,Happy,a,,,,,,,,
,,,,,,,,,,,,,uzma,1,001,female,2021-03-30_14h17.18.321,openIAT,2020.1.0rc3,Win32,60,a,1,1.016655,,,,,,,,1.016655,1,0,1,1,8,1,stimuli/black_5.jpg,,a,,,,,,,,
,,,,,,,,,,,,,uzma,1,001,female,2021-03-30_14h17.18.321,openIAT,2020.1.0rc3,Win32,60,a,1,0.531615,,,,,,,,0.531615,1,0,2,2,6,1,stimuli/black_4.jpg,,a,,,,,,,,
,,,,,,,,,,,,,uzma,1,001,female,2021-03-30_14h17.18.321,openIAT,2020.1.0rc3,Win32,60,a,1,0.457405,,,,,,,,0.457405,1,0,3,3,2,1,stimuli/black_2.jpg,,a,,,,,,,,
,,,,,,,,,,,,,uzma,1,001,female,2021-03-30_14h17.18.321,openIAT,2020.1.0rc3,Win32,60,l,1,0.83364,,,,,,,,0.83364,1,0,4,4,7,1,stimuli/white_4.jpg,,l,,,,,,,,
,,,,,,,,,,,,,uzma,1,001,female,2021-03-30_14h17.18.321,openIAT,2020.1.0rc3,Win32,60,l,1,0.56686,,,,,,,,0.56686,1,0,5,5,19,1,stimuli/blank.png,Nasty,l,,,,,,,,
,,,,,,,,,,,,,uzma,1,001,female,2021-03-30_14h17.18.321,openIAT,2020.1.0rc3,Win32,60,a,0,0.887265,,,,,,,,0.887265,0,0,6,6,17,1,stimuli/blank.png,Evil,l,,,,,,,,
,,,,,,,,,,,,,uzma,1,001,female,2021-03-30_14h17.18.321,openIAT,2020.1.0rc3,Win32,60,l,1,1.15787,,,,,,,,1.15787,1,0,7,7,15,1,stimuli/blank.png,Agony,l,,,,,,,,
,,,,,,,,,,,,,uzma,1,001,female,2021-03-30_14h17.18.321,openIAT,2020.1.0rc3,Win32,60,l,1,0.67743,,,,,,,,0.67743,1,0,8,8,11,1,stimuli/blank.png,Bad,l,,,,,,,,
,,,,,,,,,,,,,uzma,1,001,female,2021-03-30_14h17.18.321,openIAT,2020.1.0rc3,Win32,60,a,1,0.810315,,,,,,,,0.810315,1,0,9,9,0,1,stimuli/black_1.jpg,,a,,,,,,,,
,,,,,,,,,,,,,uzma,1,001,female,2021-03-30_14h17.18.321,openIAT,2020.1.0rc3,Win32,60,l,1,0.894995,,,,,,,,0.894995,1,0,10,10,5,1,stimuli/white_3.jpg,,l,,,,,,,,
,,,,,,,,,,,,,uzma,1,001,female,2021-03-30_14h17.18.321,openIAT,2020.1.0rc3,Win32,60,l,0,1.009255,,,,,,,,1.009255,0,0,11,11,18,1,stimuli/blank.png,Joy,a,,,,,,,,
,,,,,,,,,,,,,uzma,1,001,female,2021-03-30_14h17.18.321,openIAT,2020.1.0rc3,Win32,60,a,0,0.92655,,,,,,,,0.92655,0,0,12,12,1,1,stimuli/white_1.jpg,,l,,,,,,,,
,,,,,,,,,,,,,uzma,1,001,female,2021-03-30_14h17.18.321,openIAT,2020.1.0rc3,Win32,60,a,1,1.55965,,,,,,,,1.55965,1,0,13,13,16,1,stimuli/blank.png,Love,a,,,,,,,,
,,,,,,,,,,,,,uzma,1,001,female,2021-03-30_14h17.18.321,openIAT,2020.1.0rc3,Win32,60,l,1,1.42523,,,,,,,,1.42523,1,0,14,14,9,1,stimuli/white_5.jpg,,l,,,,,,,,
,,,,,,,,,,,,,uzma,1,001,female,2021-03-30_14h17.18.321,openIAT,2020.1.0rc3,Win32,60,a,0,1.21519,,,,,,,,1.21519,0,0,15,15,13,1,stimuli/blank.png,Hurt,l,,,,,,,,
,,,,,,,,,,,,,uzma,1,001,female,2021-03-30_14h17.18.321,openIAT,2020.1.0rc3,Win32,60,l,0,0.690135,,,,,,,,0.690135,0,0,16,16,14,1,stimuli/blank.png,Pleasure,a,,,,,,,,
,,,,,,,,,,,,,uzma,1,001,female,2021-03-30_14h17.18.321,openIAT,2020.1.0rc3,Win32,60,a,1,0.663435,,,,,,,,0.663435,1,0,17,17,10,1,stimuli/blank.png,Good,a,,,,,,,,
,,,,,,,,,,,,,uzma,1,001,female,2021-03-30_14h17.18.321,openIAT,2020.1.0rc3,Win32,60,a,1,0.832575,,,,,,,,0.832575,1,0,18,18,4,1,stimuli/black_3.jpg,,a,,,,,,,,
,,,,,,,,,,,,,uzma,1,001,female,2021-03-30_14h17.18.321,openIAT,2020.1.0rc3,Win32,60,l,1,0.83161,,,,,,,,0.83161,1,0,19,19,3,1,stimuli/white_2.jpg,,l,,,,,,,,
