instr_done_touch.x,instr_done_touch.y,instr_done_touch.leftButton,instr_done_touch.midButton,instr_done_touch.rightButton,instr_done_touch.clicked_name,instruct_pages.thisRepN,instruct_pages.thisTrialN,instruct_pages.thisN,instruct_pages.thisIndex,instruct_pages.ran,pageN,instruct_text,participant,order,session,gender,date,expName,psychopyVersion,OS,frameRate,key_resp.keys,key_resp.corr,key_resp.rt,touch_resp.x,touch_resp.y,touch_resp.leftButton,touch_resp.midButton,touch_resp.rightButton,touch_resp.time,touch_resp.clicked_name,rt,corr,trials.thisRepN,trials.thisTrialN,trials.thisN,trials.thisIndex,trials.ran,stimImage,stimWord,CorrAns,blocks.thisRepN,blocks.thisTrialN,blocks.thisN,blocks.thisIndex,blocks.ran,conds_file,label_left,label_right
0.120946181,-0.415438368,1,0,0,instr_done_button,0,0,0,0,1,1,"You will be presented with words or images to classify into categories using either the 'A' or 'L' key. 
 
Try to go as fast as possible while making as few mistakes as possible. 
",x,2,001,male,2024-03-10_19h29.58.231,openIAT,2020.1.0rc3,MacIntel,60,,,,,,,,,,,,,,,,,,,,,,,,,,,,
0.093506944,-0.391983507,1,0,0,instr_done_button,0,1,1,1,1,2,"Keep in mind: 
 
1) Labels at the top of the screen indicate which catogory goes with which key. 
 
2) Each word or image has a correct catogory classification 
 
3) Keep your index fingers on the A and L keys to enable a rapid response. 
 
4) The test gives no results if you go slow- please try to go as fast as possible 
",x,2,001,male,2024-03-10_19h29.58.231,openIAT,2020.1.0rc3,MacIntel,60,,,,,,,,,,,,,,,,,,,,,,,,,,,,
,,,,,,,,,,,,,x,2,001,male,2024-03-10_19h29.58.231,openIAT,2020.1.0rc3,MacIntel,60,a,0,0.9076,,,,,,,,0.9076,0,0,0,0,7,1,stimuli/blank.png,Evil,l,,,,,,,,
,,,,,,,,,,,,,x,2,001,male,2024-03-10_19h29.58.231,openIAT,2020.1.0rc3,MacIntel,60,a,1,0.9729,,,,,,,,0.9729,1,0,1,1,0,1,stimuli/blank.png,Good,a,,,,,,,,
,,,,,,,,,,,,,x,2,001,male,2024-03-10_19h29.58.231,openIAT,2020.1.0rc3,MacIntel,60,a,0,1.8711,,,,,,,,1.8711,0,0,2,2,9,1,stimuli/blank.png,Nasty,l,,,,,,,,
,,,,,,,,,,,,,x,2,001,male,2024-03-10_19h29.58.231,openIAT,2020.1.0rc3,MacIntel,60,a,1,1.4778,,,,,,,,1.4778,1,0,3,3,2,1,stimuli/blank.png,Happy,a,,,,,,,,
,,,,,,,,,,,,,x,2,001,male,2024-03-10_19h29.58.231,openIAT,2020.1.0rc3,MacIntel,60,l,1,1605.6389,,,,,,,,1605.6389,1,0,4,4,3,1,stimuli/blank.png,Hurt,l,,,,,,,,
,,,,,,,,,,,,,x,2,001,male,2024-03-10_19h29.58.231,openIAT,2020.1.0rc3,MacIntel,60,a,1,0.9036,,,,,,,,0.9036,1,0,5,5,6,1,stimuli/blank.png,Love,a,,,,,,,,
,,,,,,,,,,,,,x,2,001,male,2024-03-10_19h29.58.231,openIAT,2020.1.0rc3,MacIntel,60,a,1,0.1989,,,,,,,,0.1989,1,0,6,6,8,1,stimuli/blank.png,Joy,a,,,,,,,,
,,,,,,,,,,,,,x,2,001,male,2024-03-10_19h29.58.231,openIAT,2020.1.0rc3,MacIntel,60,l,1,0.1384,,,,,,,,0.1384,1,0,7,7,5,1,stimuli/blank.png,Agony,l,,,,,,,,
,,,,,,,,,,,,,x,2,001,male,2024-03-10_19h29.58.231,openIAT,2020.1.0rc3,MacIntel,60,a,1,0.055,,,,,,,,0.055,1,0,8,8,4,1,stimuli/blank.png,Pleasure,a,,,,,,,,
,,,,,,,,,,,,,x,2,001,male,2024-03-10_19h29.58.231,openIAT,2020.1.0rc3,MacIntel,60,l,1,0.1713,,,,,,,,0.1713,1,0,9,9,1,1,stimuli/blank.png,Bad,l,,,,,,,,
,,,,,,,,,,,,,x,2,001,male,2024-03-10_19h29.58.231,openIAT,2020.1.0rc3,MacIntel,60,,,,,,,,,,,,,,,,,,,,,0,0,0,0,1,pos_neg_train.xlsx,"A = 
Positive","L = 
Negative"
,,,,,,,,,,,,,x,2,001,male,2024-03-10_19h29.58.231,openIAT,2020.1.0rc3,MacIntel,60,l,0,0.3215,,,,,,,,0.3215,0,0,0,0,0,1,stimuli/black_1.jpg,,a,,,,,,,,
,,,,,,,,,,,,,x,2,001,male,2024-03-10_19h29.58.231,openIAT,2020.1.0rc3,MacIntel,60,a,1,0.1794,,,,,,,,0.1794,1,0,1,1,4,1,stimuli/black_3.jpg,,a,,,,,,,,
,,,,,,,,,,,,,x,2,001,male,2024-03-10_19h29.58.231,openIAT,2020.1.0rc3,MacIntel,60,a,0,0.0553,,,,,,,,0.0553,0,0,2,2,9,1,stimuli/white_5.jpg,,l,,,,,,,,
,,,,,,,,,,,,,x,2,001,male,2024-03-10_19h29.58.231,openIAT,2020.1.0rc3,MacIntel,60,l,1,0.2381,,,,,,,,0.2381,1,0,3,3,5,1,stimuli/white_3.jpg,,l,,,,,,,,
,,,,,,,,,,,,,x,2,001,male,2024-03-10_19h29.58.231,openIAT,2020.1.0rc3,MacIntel,60,l,1,0.1037,,,,,,,,0.1037,1,0,4,4,3,1,stimuli/white_2.jpg,,l,,,,,,,,
,,,,,,,,,,,,,x,2,001,male,2024-03-10_19h29.58.231,openIAT,2020.1.0rc3,MacIntel,60,l,0,0.0407,,,,,,,,0.0407,0,0,5,5,2,1,stimuli/black_2.jpg,,a,,,,,,,,
,,,,,,,,,,,,,x,2,001,male,2024-03-10_19h29.58.231,openIAT,2020.1.0rc3,MacIntel,60,a,0,0.2764,,,,,,,,0.2764,0,0,6,6,7,1,stimuli/white_4.jpg,,l,,,,,,,,
,,,,,,,,,,,,,x,2,001,male,2024-03-10_19h29.58.231,openIAT,2020.1.0rc3,MacIntel,60,l,1,0.0937,,,,,,,,0.0937,1,0,7,7,1,1,stimuli/white_1.jpg,,l,,,,,,,,
,,,,,,,,,,,,,x,2,001,male,2024-03-10_19h29.58.231,openIAT,2020.1.0rc3,MacIntel,60,l,0,0.1248,,,,,,,,0.1248,0,0,8,8,6,1,stimuli/black_4.jpg,,a,,,,,,,,
,,,,,,,,,,,,,x,2,001,male,2024-03-10_19h29.58.231,openIAT,2020.1.0rc3,MacIntel,60,a,1,0.4381,,,,,,,,0.4381,1,0,9,9,8,1,stimuli/black_5.jpg,,a,,,,,,,,
,,,,,,,,,,,,,x,2,001,male,2024-03-10_19h29.58.231,openIAT,2020.1.0rc3,MacIntel,60,,,,,,,,,,,,,,,,,,,,,0,1,1,1,1,incong_train.xlsx,"A = 
Black","L = 
White"
,,,,,,,,,,,,,x,2,001,male,2024-03-10_19h29.58.231,openIAT,2020.1.0rc3,MacIntel,60,a,0,0.5268,,,,,,,,0.5268,0,0,0,0,11,1,stimuli/blank.png,Bad,l,,,,,,,,
,,,,,,,,,,,,,x,2,001,male,2024-03-10_19h29.58.231,openIAT,2020.1.0rc3,MacIntel,60,l,1,1.5871,,,,,,,,1.5871,1,0,1,1,9,1,stimuli/white_5.jpg,,l,,,,,,,,
,,,,,,,,,,,,,x,2,001,male,2024-03-10_19h29.58.231,openIAT,2020.1.0rc3,MacIntel,60,l,1,0.34,,,,,,,,0.34,1,0,2,2,17,1,stimuli/blank.png,Evil,l,,,,,,,,
,,,,,,,,,,,,,x,2,001,male,2024-03-10_19h29.58.231,openIAT,2020.1.0rc3,MacIntel,60,l,0,0.2737,,,,,,,,0.2737,0,0,3,3,6,1,stimuli/black_4.jpg,,a,,,,,,,,
,,,,,,,,,,,,,x,2,001,male,2024-03-10_19h29.58.231,openIAT,2020.1.0rc3,MacIntel,60,l,0,0.1378,,,,,,,,0.1378,0,0,4,4,14,1,stimuli/blank.png,Pleasure,a,,,,,,,,
,,,,,,,,,,,,,x,2,001,male,2024-03-10_19h29.58.231,openIAT,2020.1.0rc3,MacIntel,60,l,1,0.1545,,,,,,,,0.1545,1,0,5,5,19,1,stimuli/blank.png,Nasty,l,,,,,,,,
,,,,,,,,,,,,,x,2,001,male,2024-03-10_19h29.58.231,openIAT,2020.1.0rc3,MacIntel,60,l,1,0.0058,,,,,,,,0.0058,1,0,6,6,1,1,stimuli/white_1.jpg,,l,,,,,,,,
,,,,,,,,,,,,,x,2,001,male,2024-03-10_19h29.58.231,openIAT,2020.1.0rc3,MacIntel,60,l,0,0.0004,,,,,,,,0.0004,0,0,7,7,0,1,stimuli/black_1.jpg,,a,,,,,,,,
,,,,,,,,,,,,,x,2,001,male,2024-03-10_19h29.58.231,openIAT,2020.1.0rc3,MacIntel,60,l,0,0.2299,,,,,,,,0.2299,0,0,8,8,10,1,stimuli/blank.png,Good,a,,,,,,,,
,,,,,,,,,,,,,x,2,001,male,2024-03-10_19h29.58.231,openIAT,2020.1.0rc3,MacIntel,60,a,1,0.1042,,,,,,,,0.1042,1,0,9,9,2,1,stimuli/black_2.jpg,,a,,,,,,,,
,,,,,,,,,,,,,x,2,001,male,2024-03-10_19h29.58.231,openIAT,2020.1.0rc3,MacIntel,60,a,0,0.3258,,,,,,,,0.3258,0,0,10,10,3,1,stimuli/white_2.jpg,,l,,,,,,,,
,,,,,,,,,,,,,x,2,001,male,2024-03-10_19h29.58.231,openIAT,2020.1.0rc3,MacIntel,60,l,0,0.3538,,,,,,,,0.3538,0,0,11,11,8,1,stimuli/black_5.jpg,,a,,,,,,,,
,,,,,,,,,,,,,x,2,001,male,2024-03-10_19h29.58.231,openIAT,2020.1.0rc3,MacIntel,60,l,1,0.2214,,,,,,,,0.2214,1,0,12,12,5,1,stimuli/white_3.jpg,,l,,,,,,,,
,,,,,,,,,,,,,x,2,001,male,2024-03-10_19h29.58.231,openIAT,2020.1.0rc3,MacIntel,60,l,0,0.2393,,,,,,,,0.2393,0,0,13,13,16,1,stimuli/blank.png,Love,a,,,,,,,,
,,,,,,,,,,,,,x,2,001,male,2024-03-10_19h29.58.231,openIAT,2020.1.0rc3,MacIntel,60,a,1,0.2936,,,,,,,,0.2936,1,0,14,14,12,1,stimuli/blank.png,Happy,a,,,,,,,,
,,,,,,,,,,,,,x,2,001,male,2024-03-10_19h29.58.231,openIAT,2020.1.0rc3,MacIntel,60,a,0,0.257,,,,,,,,0.257,0,0,15,15,15,1,stimuli/blank.png,Agony,l,,,,,,,,
,,,,,,,,,,,,,x,2,001,male,2024-03-10_19h29.58.231,openIAT,2020.1.0rc3,MacIntel,60,l,1,1.5763,,,,,,,,1.5763,1,0,16,16,7,1,stimuli/white_4.jpg,,l,,,,,,,,
,,,,,,,,,,,,,x,2,001,male,2024-03-10_19h29.58.231,openIAT,2020.1.0rc3,MacIntel,60,l,0,0.1049,,,,,,,,0.1049,0,0,17,17,4,1,stimuli/black_3.jpg,,a,,,,,,,,
,,,,,,,,,,,,,x,2,001,male,2024-03-10_19h29.58.231,openIAT,2020.1.0rc3,MacIntel,60,l,1,0.255,,,,,,,,0.255,1,0,18,18,13,1,stimuli/blank.png,Hurt,l,,,,,,,,
,,,,,,,,,,,,,x,2,001,male,2024-03-10_19h29.58.231,openIAT,2020.1.0rc3,MacIntel,60,l,0,0.2218,,,,,,,,0.2218,0,0,19,19,18,1,stimuli/blank.png,Joy,a,,,,,,,,
,,,,,,,,,,,,,x,2,001,male,2024-03-10_19h29.58.231,openIAT,2020.1.0rc3,MacIntel,60,,,,,,,,,,,,,,,,,,,,,0,2,2,2,1,incong_test.xlsx,"A = 
Black or 
Positive","L = 
White or 
Negative"
,,,,,,,,,,,,,x,2,001,male,2024-03-10_19h29.58.231,openIAT,2020.1.0rc3,MacIntel,60,a,0,0.3045,,,,,,,,0.3045,0,0,0,0,4,1,stimuli/black_3.jpg,NaN,l,,,,,,,,
,,,,,,,,,,,,,x,2,001,male,2024-03-10_19h29.58.231,openIAT,2020.1.0rc3,MacIntel,60,l,1,0.3653,,,,,,,,0.3653,1,0,1,1,2,1,stimuli/black_2.jpg,NaN,l,,,,,,,,
,,,,,,,,,,,,,x,2,001,male,2024-03-10_19h29.58.231,openIAT,2020.1.0rc3,MacIntel,60,l,0,0.2884,,,,,,,,0.2884,0,0,2,2,9,1,stimuli/white_5.jpg,NaN,a,,,,,,,,
,,,,,,,,,,,,,x,2,001,male,2024-03-10_19h29.58.231,openIAT,2020.1.0rc3,MacIntel,60,l,0,0.1352,,,,,,,,0.1352,0,0,3,3,5,1,stimuli/white_3.jpg,NaN,a,,,,,,,,
,,,,,,,,,,,,,x,2,001,male,2024-03-10_19h29.58.231,openIAT,2020.1.0rc3,MacIntel,60,a,0,0.2293,,,,,,,,0.2293,0,0,4,4,6,1,stimuli/black_4.jpg,NaN,l,,,,,,,,
,,,,,,,,,,,,,x,2,001,male,2024-03-10_19h29.58.231,openIAT,2020.1.0rc3,MacIntel,60,l,0,0.1087,,,,,,,,0.1087,0,0,5,5,7,1,stimuli/white_4.jpg,NaN,a,,,,,,,,
,,,,,,,,,,,,,x,2,001,male,2024-03-10_19h29.58.231,openIAT,2020.1.0rc3,MacIntel,60,a,1,0.1674,,,,,,,,0.1674,1,0,6,6,1,1,stimuli/white_1.jpg,NaN,a,,,,,,,,
,,,,,,,,,,,,,x,2,001,male,2024-03-10_19h29.58.231,openIAT,2020.1.0rc3,MacIntel,60,a,1,0.1729,,,,,,,,0.1729,1,0,7,7,3,1,stimuli/white_2.jpg,NaN,a,,,,,,,,
,,,,,,,,,,,,,x,2,001,male,2024-03-10_19h29.58.231,openIAT,2020.1.0rc3,MacIntel,60,a,0,0.2124,,,,,,,,0.2124,0,0,8,8,8,1,stimuli/black_5.jpg,NaN,l,,,,,,,,
,,,,,,,,,,,,,x,2,001,male,2024-03-10_19h29.58.231,openIAT,2020.1.0rc3,MacIntel,60,l,1,0.1541,,,,,,,,0.1541,1,0,9,9,0,1,stimuli/black_1.jpg,NaN,l,,,,,,,,
,,,,,,,,,,,,,x,2,001,male,2024-03-10_19h29.58.231,openIAT,2020.1.0rc3,MacIntel,60,,,,,,,,,,,,,,,,,,,,,0,3,3,3,1,cong_train.xlsx,"A = 
White","L = 
Black"
,,,,,,,,,,,,,x,2,001,male,2024-03-10_19h29.58.231,openIAT,2020.1.0rc3,MacIntel,60,l,1,0.6835,,,,,,,,0.6835,1,0,0,0,15,1,stimuli/blank.png,Agony,l,,,,,,,,
,,,,,,,,,,,,,x,2,001,male,2024-03-10_19h29.58.231,openIAT,2020.1.0rc3,MacIntel,60,l,1,0.0551,,,,,,,,0.0551,1,0,1,1,13,1,stimuli/blank.png,Hurt,l,,,,,,,,
,,,,,,,,,,,,,x,2,001,male,2024-03-10_19h29.58.231,openIAT,2020.1.0rc3,MacIntel,60,l,0,0.0761,,,,,,,,0.0761,0,0,2,2,10,1,stimuli/blank.png,Good,a,,,,,,,,
,,,,,,,,,,,,,x,2,001,male,2024-03-10_19h29.58.231,openIAT,2020.1.0rc3,MacIntel,60,l,1,0.3171,,,,,,,,0.3171,1,0,3,3,19,1,stimuli/blank.png,Nasty,l,,,,,,,,
,,,,,,,,,,,,,x,2,001,male,2024-03-10_19h29.58.231,openIAT,2020.1.0rc3,MacIntel,60,l,1,0.1381,,,,,,,,0.1381,1,0,4,4,17,1,stimuli/blank.png,Evil,l,,,,,,,,
,,,,,,,,,,,,,x,2,001,male,2024-03-10_19h29.58.231,openIAT,2020.1.0rc3,MacIntel,60,l,0,0.1564,,,,,,,,0.1564,0,0,5,5,3,1,stimuli/white_2.jpg,NaN,a,,,,,,,,
,,,,,,,,,,,,,x,2,001,male,2024-03-10_19h29.58.231,openIAT,2020.1.0rc3,MacIntel,60,a,1,0.2277,,,,,,,,0.2277,1,0,6,6,18,1,stimuli/blank.png,Joy,a,,,,,,,,
,,,,,,,,,,,,,x,2,001,male,2024-03-10_19h29.58.231,openIAT,2020.1.0rc3,MacIntel,60,l,1,0.1406,,,,,,,,0.1406,1,0,7,7,11,1,stimuli/blank.png,Bad,l,,,,,,,,
,,,,,,,,,,,,,x,2,001,male,2024-03-10_19h29.58.231,openIAT,2020.1.0rc3,MacIntel,60,l,1,0.1207,,,,,,,,0.1207,1,0,8,8,2,1,stimuli/black_2.jpg,NaN,l,,,,,,,,
,,,,,,,,,,,,,x,2,001,male,2024-03-10_19h29.58.231,openIAT,2020.1.0rc3,MacIntel,60,l,1,0.0441,,,,,,,,0.0441,1,0,9,9,0,1,stimuli/black_1.jpg,NaN,l,,,,,,,,
,,,,,,,,,,,,,x,2,001,male,2024-03-10_19h29.58.231,openIAT,2020.1.0rc3,MacIntel,60,l,0,0.0706,,,,,,,,0.0706,0,0,10,10,5,1,stimuli/white_3.jpg,NaN,a,,,,,,,,
,,,,,,,,,,,,,x,2,001,male,2024-03-10_19h29.58.231,openIAT,2020.1.0rc3,MacIntel,60,l,0,0.0746,,,,,,,,0.0746,0,0,11,11,7,1,stimuli/white_4.jpg,NaN,a,,,,,,,,
,,,,,,,,,,,,,x,2,001,male,2024-03-10_19h29.58.231,openIAT,2020.1.0rc3,MacIntel,60,a,1,0.3891,,,,,,,,0.3891,1,0,12,12,1,1,stimuli/white_1.jpg,NaN,a,,,,,,,,
,,,,,,,,,,,,,x,2,001,male,2024-03-10_19h29.58.231,openIAT,2020.1.0rc3,MacIntel,60,a,0,0.2236,,,,,,,,0.2236,0,0,13,13,8,1,stimuli/black_5.jpg,NaN,l,,,,,,,,
,,,,,,,,,,,,,x,2,001,male,2024-03-10_19h29.58.231,openIAT,2020.1.0rc3,MacIntel,60,l,0,0.5587,,,,,,,,0.5587,0,0,14,14,16,1,stimuli/blank.png,Love,a,,,,,,,,
,,,,,,,,,,,,,x,2,001,male,2024-03-10_19h29.58.231,openIAT,2020.1.0rc3,MacIntel,60,a,1,0.2876,,,,,,,,0.2876,1,0,15,15,12,1,stimuli/blank.png,Happy,a,,,,,,,,
,,,,,,,,,,,,,x,2,001,male,2024-03-10_19h29.58.231,openIAT,2020.1.0rc3,MacIntel,60,a,1,0.3226,,,,,,,,0.3226,1,0,16,16,9,1,stimuli/white_5.jpg,NaN,a,,,,,,,,
,,,,,,,,,,,,,x,2,001,male,2024-03-10_19h29.58.231,openIAT,2020.1.0rc3,MacIntel,60,a,0,0.4915,,,,,,,,0.4915,0,0,17,17,6,1,stimuli/black_4.jpg,NaN,l,,,,,,,,
,,,,,,,,,,,,,x,2,001,male,2024-03-10_19h29.58.231,openIAT,2020.1.0rc3,MacIntel,60,a,1,0.2119,,,,,,,,0.2119,1,0,18,18,14,1,stimuli/blank.png,Pleasure,a,,,,,,,,
,,,,,,,,,,,,,x,2,001,male,2024-03-10_19h29.58.231,openIAT,2020.1.0rc3,MacIntel,60,a,0,0.4572,,,,,,,,0.4572,0,0,19,19,4,1,stimuli/black_3.jpg,NaN,l,,,,,,,,
