instr_done_touch.x,instr_done_touch.y,instr_done_touch.leftButton,instr_done_touch.midButton,instr_done_touch.rightButton,instr_done_touch.clicked_name,instruct_pages.thisRepN,instruct_pages.thisTrialN,instruct_pages.thisN,instruct_pages.thisIndex,instruct_pages.ran,pageN,instruct_text,participant,order,session,gender,date,expName,psychopyVersion,OS,frameRate,key_resp.keys,key_resp.corr,key_resp.rt,touch_resp.x,touch_resp.y,touch_resp.leftButton,touch_resp.midButton,touch_resp.rightButton,touch_resp.time,touch_resp.clicked_name,rt,corr,trials.thisRepN,trials.thisTrialN,trials.thisN,trials.thisIndex,trials.ran,stimImage,stimWord,CorrAns,blocks.thisRepN,blocks.thisTrialN,blocks.thisN,blocks.thisIndex,blocks.ran,conds_file,label_left,label_right
-0.049999979,-0.418055583,1,0,0,instr_done_button,0,0,0,0,1,1,"You will be presented with words or images to classify into categories using either the 'A' or 'L' key. 
 
Try to go as fast as possible while making as few mistakes as possible. 
",xuduhong,2,001,male,2021-09-30_14h43.17.433,openIAT,2020.1.0rc3,Win32,60,,,,,,,,,,,,,,,,,,,,,,,,,,,,
-0.047916646,-0.418750027,1,0,0,instr_done_button,0,1,1,1,1,2,"Keep in mind: 
 
1) Labels at the top of the screen indicate which catogory goes with which key. 
 
2) Each word or image has a correct catogory classification 
 
3) Keep your index fingers on the A and L keys to enable a rapid response. 
 
4) The test gives no results if you go slow- please try to go as fast as possible 
",xuduhong,2,001,male,2021-09-30_14h43.17.433,openIAT,2020.1.0rc3,Win32,60,,,,,,,,,,,,,,,,,,,,,,,,,,,,
,,,,,,,,,,,,,xuduhong,2,001,male,2021-09-30_14h43.17.433,openIAT,2020.1.0rc3,Win32,60,a,0,1.139,,,,,,,,1.139,0,0,0,0,5,1,stimuli/blank.png,Agony,l,,,,,,,,
,,,,,,,,,,,,,xuduhong,2,001,male,2021-09-30_14h43.17.433,openIAT,2020.1.0rc3,Win32,60,l,1,1.9342,,,,,,,,1.9342,1,0,1,1,7,1,stimuli/blank.png,Evil,l,,,,,,,,
,,,,,,,,,,,,,xuduhong,2,001,male,2021-09-30_14h43.17.433,openIAT,2020.1.0rc3,Win32,60,a,1,0.8951,,,,,,,,0.8951,1,0,2,2,6,1,stimuli/blank.png,Love,a,,,,,,,,
,,,,,,,,,,,,,xuduhong,2,001,male,2021-09-30_14h43.17.433,openIAT,2020.1.0rc3,Win32,60,l,1,0.8995,,,,,,,,0.8995,1,0,3,3,1,1,stimuli/blank.png,Bad,l,,,,,,,,
,,,,,,,,,,,,,xuduhong,2,001,male,2021-09-30_14h43.17.433,openIAT,2020.1.0rc3,Win32,60,a,1,0.8884,,,,,,,,0.8884,1,0,4,4,4,1,stimuli/blank.png,Pleasure,a,,,,,,,,
,,,,,,,,,,,,,xuduhong,2,001,male,2021-09-30_14h43.17.433,openIAT,2020.1.0rc3,Win32,60,l,1,1.0889,,,,,,,,1.0889,1,0,5,5,9,1,stimuli/blank.png,Nasty,l,,,,,,,,
,,,,,,,,,,,,,xuduhong,2,001,male,2021-09-30_14h43.17.433,openIAT,2020.1.0rc3,Win32,60,a,1,0.7104,,,,,,,,0.7104,1,0,6,6,0,1,stimuli/blank.png,Good,a,,,,,,,,
,,,,,,,,,,,,,xuduhong,2,001,male,2021-09-30_14h43.17.433,openIAT,2020.1.0rc3,Win32,60,l,1,1.0106,,,,,,,,1.0106,1,0,7,7,3,1,stimuli/blank.png,Hurt,l,,,,,,,,
,,,,,,,,,,,,,xuduhong,2,001,male,2021-09-30_14h43.17.433,openIAT,2020.1.0rc3,Win32,60,a,1,0.8659,,,,,,,,0.8659,1,0,8,8,2,1,stimuli/blank.png,Happy,a,,,,,,,,
,,,,,,,,,,,,,xuduhong,2,001,male,2021-09-30_14h43.17.433,openIAT,2020.1.0rc3,Win32,60,a,1,0.7933,,,,,,,,0.7933,1,0,9,9,8,1,stimuli/blank.png,Joy,a,,,,,,,,
,,,,,,,,,,,,,xuduhong,2,001,male,2021-09-30_14h43.17.433,openIAT,2020.1.0rc3,Win32,60,,,,,,,,,,,,,,,,,,,,,0,0,0,0,1,pos_neg_train.xlsx,"A = 
Positive","L = 
Negative"
,,,,,,,,,,,,,xuduhong,2,001,male,2021-09-30_14h43.17.433,openIAT,2020.1.0rc3,Win32,60,a,0,1.35,,,,,,,,1.35,0,0,0,0,3,1,stimuli/white_2.jpg,,l,,,,,,,,
,,,,,,,,,,,,,xuduhong,2,001,male,2021-09-30_14h43.17.433,openIAT,2020.1.0rc3,Win32,60,a,1,1.8885,,,,,,,,1.8885,1,0,1,1,4,1,stimuli/black_3.jpg,,a,,,,,,,,
,,,,,,,,,,,,,xuduhong,2,001,male,2021-09-30_14h43.17.433,openIAT,2020.1.0rc3,Win32,60,a,1,0.9177,,,,,,,,0.9177,1,0,2,2,6,1,stimuli/black_4.jpg,,a,,,,,,,,
,,,,,,,,,,,,,xuduhong,2,001,male,2021-09-30_14h43.17.433,openIAT,2020.1.0rc3,Win32,60,l,1,0.8346,,,,,,,,0.8346,1,0,3,3,9,1,stimuli/white_5.jpg,,l,,,,,,,,
,,,,,,,,,,,,,xuduhong,2,001,male,2021-09-30_14h43.17.433,openIAT,2020.1.0rc3,Win32,60,a,1,0.8514,,,,,,,,0.8514,1,0,4,4,8,1,stimuli/black_5.jpg,,a,,,,,,,,
,,,,,,,,,,,,,xuduhong,2,001,male,2021-09-30_14h43.17.433,openIAT,2020.1.0rc3,Win32,60,a,1,0.9014,,,,,,,,0.9014,1,0,5,5,2,1,stimuli/black_2.jpg,,a,,,,,,,,
,,,,,,,,,,,,,xuduhong,2,001,male,2021-09-30_14h43.17.433,openIAT,2020.1.0rc3,Win32,60,a,0,1.6873,,,,,,,,1.6873,0,0,6,6,5,1,stimuli/white_3.jpg,,l,,,,,,,,
,,,,,,,,,,,,,xuduhong,2,001,male,2021-09-30_14h43.17.433,openIAT,2020.1.0rc3,Win32,60,a,1,0.7012,,,,,,,,0.7012,1,0,7,7,0,1,stimuli/black_1.jpg,,a,,,,,,,,
,,,,,,,,,,,,,xuduhong,2,001,male,2021-09-30_14h43.17.433,openIAT,2020.1.0rc3,Win32,60,l,1,0.7537,,,,,,,,0.7537,1,0,8,8,1,1,stimuli/white_1.jpg,,l,,,,,,,,
,,,,,,,,,,,,,xuduhong,2,001,male,2021-09-30_14h43.17.433,openIAT,2020.1.0rc3,Win32,60,l,1,0.7108,,,,,,,,0.7108,1,0,9,9,7,1,stimuli/white_4.jpg,,l,,,,,,,,
,,,,,,,,,,,,,xuduhong,2,001,male,2021-09-30_14h43.17.433,openIAT,2020.1.0rc3,Win32,60,,,,,,,,,,,,,,,,,,,,,0,1,1,1,1,incong_train.xlsx,"A = 
Black","L = 
White"
,,,,,,,,,,,,,xuduhong,2,001,male,2021-09-30_14h43.17.433,openIAT,2020.1.0rc3,Win32,60,a,1,0.9379,,,,,,,,0.9379,1,0,0,0,2,1,stimuli/black_2.jpg,,a,,,,,,,,
,,,,,,,,,,,,,xuduhong,2,001,male,2021-09-30_14h43.17.433,openIAT,2020.1.0rc3,Win32,60,l,1,2.5951,,,,,,,,2.5951,1,0,1,1,13,1,stimuli/blank.png,Hurt,l,,,,,,,,
,,,,,,,,,,,,,xuduhong,2,001,male,2021-09-30_14h43.17.433,openIAT,2020.1.0rc3,Win32,60,l,1,1.012,,,,,,,,1.012,1,0,2,2,9,1,stimuli/white_5.jpg,,l,,,,,,,,
,,,,,,,,,,,,,xuduhong,2,001,male,2021-09-30_14h43.17.433,openIAT,2020.1.0rc3,Win32,60,l,1,0.9683,,,,,,,,0.9683,1,0,3,3,1,1,stimuli/white_1.jpg,,l,,,,,,,,
,,,,,,,,,,,,,xuduhong,2,001,male,2021-09-30_14h43.17.433,openIAT,2020.1.0rc3,Win32,60,a,1,0.7389,,,,,,,,0.7389,1,0,4,4,4,1,stimuli/black_3.jpg,,a,,,,,,,,
,,,,,,,,,,,,,xuduhong,2,001,male,2021-09-30_14h43.17.433,openIAT,2020.1.0rc3,Win32,60,l,1,1.4043,,,,,,,,1.4043,1,0,5,5,15,1,stimuli/blank.png,Agony,l,,,,,,,,
,,,,,,,,,,,,,xuduhong,2,001,male,2021-09-30_14h43.17.433,openIAT,2020.1.0rc3,Win32,60,a,0,0.7721,,,,,,,,0.7721,0,0,6,6,7,1,stimuli/white_4.jpg,,l,,,,,,,,
,,,,,,,,,,,,,xuduhong,2,001,male,2021-09-30_14h43.17.433,openIAT,2020.1.0rc3,Win32,60,l,1,1.0029,,,,,,,,1.0029,1,0,7,7,17,1,stimuli/blank.png,Evil,l,,,,,,,,
,,,,,,,,,,,,,xuduhong,2,001,male,2021-09-30_14h43.17.433,openIAT,2020.1.0rc3,Win32,60,a,1,0.7968,,,,,,,,0.7968,1,0,8,8,0,1,stimuli/black_1.jpg,,a,,,,,,,,
,,,,,,,,,,,,,xuduhong,2,001,male,2021-09-30_14h43.17.433,openIAT,2020.1.0rc3,Win32,60,a,1,0.7362,,,,,,,,0.7362,1,0,9,9,8,1,stimuli/black_5.jpg,,a,,,,,,,,
,,,,,,,,,,,,,xuduhong,2,001,male,2021-09-30_14h43.17.433,openIAT,2020.1.0rc3,Win32,60,a,1,1.0544,,,,,,,,1.0544,1,0,10,10,14,1,stimuli/blank.png,Pleasure,a,,,,,,,,
,,,,,,,,,,,,,xuduhong,2,001,male,2021-09-30_14h43.17.433,openIAT,2020.1.0rc3,Win32,60,a,1,1.1205,,,,,,,,1.1205,1,0,11,11,6,1,stimuli/black_4.jpg,,a,,,,,,,,
,,,,,,,,,,,,,xuduhong,2,001,male,2021-09-30_14h43.17.433,openIAT,2020.1.0rc3,Win32,60,l,1,0.7725,,,,,,,,0.7725,1,0,12,12,3,1,stimuli/white_2.jpg,,l,,,,,,,,
,,,,,,,,,,,,,xuduhong,2,001,male,2021-09-30_14h43.17.433,openIAT,2020.1.0rc3,Win32,60,l,1,0.7533,,,,,,,,0.7533,1,0,13,13,11,1,stimuli/blank.png,Bad,l,,,,,,,,
,,,,,,,,,,,,,xuduhong,2,001,male,2021-09-30_14h43.17.433,openIAT,2020.1.0rc3,Win32,60,a,0,1.1385,,,,,,,,1.1385,0,0,14,14,5,1,stimuli/white_3.jpg,,l,,,,,,,,
,,,,,,,,,,,,,xuduhong,2,001,male,2021-09-30_14h43.17.433,openIAT,2020.1.0rc3,Win32,60,a,1,1.3265,,,,,,,,1.3265,1,0,15,15,18,1,stimuli/blank.png,Joy,a,,,,,,,,
,,,,,,,,,,,,,xuduhong,2,001,male,2021-09-30_14h43.17.433,openIAT,2020.1.0rc3,Win32,60,l,1,0.7992,,,,,,,,0.7992,1,0,16,16,19,1,stimuli/blank.png,Nasty,l,,,,,,,,
,,,,,,,,,,,,,xuduhong,2,001,male,2021-09-30_14h43.17.433,openIAT,2020.1.0rc3,Win32,60,a,1,0.8714,,,,,,,,0.8714,1,0,17,17,12,1,stimuli/blank.png,Happy,a,,,,,,,,
,,,,,,,,,,,,,xuduhong,2,001,male,2021-09-30_14h43.17.433,openIAT,2020.1.0rc3,Win32,60,a,1,0.8892,,,,,,,,0.8892,1,0,18,18,10,1,stimuli/blank.png,Good,a,,,,,,,,
,,,,,,,,,,,,,xuduhong,2,001,male,2021-09-30_14h43.17.433,openIAT,2020.1.0rc3,Win32,60,a,1,0.6712,,,,,,,,0.6712,1,0,19,19,16,1,stimuli/blank.png,Love,a,,,,,,,,
,,,,,,,,,,,,,xuduhong,2,001,male,2021-09-30_14h43.17.433,openIAT,2020.1.0rc3,Win32,60,,,,,,,,,,,,,,,,,,,,,0,2,2,2,1,incong_test.xlsx,"A = 
Black or 
Positive","L = 
White or 
Negative"
,,,,,,,,,,,,,xuduhong,2,001,male,2021-09-30_14h43.17.433,openIAT,2020.1.0rc3,Win32,60,l,0,0.7195,,,,,,,,0.7195,0,0,0,0,7,1,stimuli/white_4.jpg,NaN,a,,,,,,,,
,,,,,,,,,,,,,xuduhong,2,001,male,2021-09-30_14h43.17.433,openIAT,2020.1.0rc3,Win32,60,l,1,0.8603,,,,,,,,0.8603,1,0,1,1,4,1,stimuli/black_3.jpg,NaN,l,,,,,,,,
,,,,,,,,,,,,,xuduhong,2,001,male,2021-09-30_14h43.17.433,openIAT,2020.1.0rc3,Win32,60,l,0,1.0518,,,,,,,,1.0518,0,0,2,2,3,1,stimuli/white_2.jpg,NaN,a,,,,,,,,
,,,,,,,,,,,,,xuduhong,2,001,male,2021-09-30_14h43.17.433,openIAT,2020.1.0rc3,Win32,60,a,0,0.8316,,,,,,,,0.8316,0,0,3,3,0,1,stimuli/black_1.jpg,NaN,l,,,,,,,,
,,,,,,,,,,,,,xuduhong,2,001,male,2021-09-30_14h43.17.433,openIAT,2020.1.0rc3,Win32,60,a,1,0.622,,,,,,,,0.622,1,0,4,4,1,1,stimuli/white_1.jpg,NaN,a,,,,,,,,
,,,,,,,,,,,,,xuduhong,2,001,male,2021-09-30_14h43.17.433,openIAT,2020.1.0rc3,Win32,60,a,1,0.9448,,,,,,,,0.9448,1,0,5,5,5,1,stimuli/white_3.jpg,NaN,a,,,,,,,,
,,,,,,,,,,,,,xuduhong,2,001,male,2021-09-30_14h43.17.433,openIAT,2020.1.0rc3,Win32,60,a,0,0.5878,,,,,,,,0.5878,0,0,6,6,2,1,stimuli/black_2.jpg,NaN,l,,,,,,,,
,,,,,,,,,,,,,xuduhong,2,001,male,2021-09-30_14h43.17.433,openIAT,2020.1.0rc3,Win32,60,a,0,0.8589,,,,,,,,0.8589,0,0,7,7,8,1,stimuli/black_5.jpg,NaN,l,,,,,,,,
,,,,,,,,,,,,,xuduhong,2,001,male,2021-09-30_14h43.17.433,openIAT,2020.1.0rc3,Win32,60,a,1,1.324,,,,,,,,1.324,1,0,8,8,9,1,stimuli/white_5.jpg,NaN,a,,,,,,,,
,,,,,,,,,,,,,xuduhong,2,001,male,2021-09-30_14h43.17.433,openIAT,2020.1.0rc3,Win32,60,a,0,0.8971,,,,,,,,0.8971,0,0,9,9,6,1,stimuli/black_4.jpg,NaN,l,,,,,,,,
,,,,,,,,,,,,,xuduhong,2,001,male,2021-09-30_14h43.17.433,openIAT,2020.1.0rc3,Win32,60,,,,,,,,,,,,,,,,,,,,,0,3,3,3,1,cong_train.xlsx,"A = 
White","L = 
Black"
,,,,,,,,,,,,,xuduhong,2,001,male,2021-09-30_14h43.17.433,openIAT,2020.1.0rc3,Win32,60,a,1,0.7878,,,,,,,,0.7878,1,0,0,0,3,1,stimuli/white_2.jpg,NaN,a,,,,,,,,
,,,,,,,,,,,,,xuduhong,2,001,male,2021-09-30_14h43.17.433,openIAT,2020.1.0rc3,Win32,60,l,1,0.811,,,,,,,,0.811,1,0,1,1,13,1,stimuli/blank.png,Hurt,l,,,,,,,,
,,,,,,,,,,,,,xuduhong,2,001,male,2021-09-30_14h43.17.433,openIAT,2020.1.0rc3,Win32,60,a,1,0.8571,,,,,,,,0.8571,1,0,2,2,14,1,stimuli/blank.png,Pleasure,a,,,,,,,,
,,,,,,,,,,,,,xuduhong,2,001,male,2021-09-30_14h43.17.433,openIAT,2020.1.0rc3,Win32,60,l,1,0.7549,,,,,,,,0.7549,1,0,3,3,17,1,stimuli/blank.png,Evil,l,,,,,,,,
,,,,,,,,,,,,,xuduhong,2,001,male,2021-09-30_14h43.17.433,openIAT,2020.1.0rc3,Win32,60,a,0,1.1604,,,,,,,,1.1604,0,0,4,4,2,1,stimuli/black_2.jpg,NaN,l,,,,,,,,
,,,,,,,,,,,,,xuduhong,2,001,male,2021-09-30_14h43.17.433,openIAT,2020.1.0rc3,Win32,60,a,1,0.799,,,,,,,,0.799,1,0,5,5,16,1,stimuli/blank.png,Love,a,,,,,,,,
,,,,,,,,,,,,,xuduhong,2,001,male,2021-09-30_14h43.17.433,openIAT,2020.1.0rc3,Win32,60,a,1,0.9802,,,,,,,,0.9802,1,0,6,6,5,1,stimuli/white_3.jpg,NaN,a,,,,,,,,
,,,,,,,,,,,,,xuduhong,2,001,male,2021-09-30_14h43.17.433,openIAT,2020.1.0rc3,Win32,60,l,1,0.7107,,,,,,,,0.7107,1,0,7,7,15,1,stimuli/blank.png,Agony,l,,,,,,,,
,,,,,,,,,,,,,xuduhong,2,001,male,2021-09-30_14h43.17.433,openIAT,2020.1.0rc3,Win32,60,a,1,1.1204,,,,,,,,1.1204,1,0,8,8,9,1,stimuli/white_5.jpg,NaN,a,,,,,,,,
,,,,,,,,,,,,,xuduhong,2,001,male,2021-09-30_14h43.17.433,openIAT,2020.1.0rc3,Win32,60,l,1,0.7982,,,,,,,,0.7982,1,0,9,9,0,1,stimuli/black_1.jpg,NaN,l,,,,,,,,
,,,,,,,,,,,,,xuduhong,2,001,male,2021-09-30_14h43.17.433,openIAT,2020.1.0rc3,Win32,60,l,1,0.7678,,,,,,,,0.7678,1,0,10,10,8,1,stimuli/black_5.jpg,NaN,l,,,,,,,,
,,,,,,,,,,,,,xuduhong,2,001,male,2021-09-30_14h43.17.433,openIAT,2020.1.0rc3,Win32,60,a,1,0.9403,,,,,,,,0.9403,1,0,11,11,12,1,stimuli/blank.png,Happy,a,,,,,,,,
,,,,,,,,,,,,,xuduhong,2,001,male,2021-09-30_14h43.17.433,openIAT,2020.1.0rc3,Win32,60,a,1,0.6533,,,,,,,,0.6533,1,0,12,12,18,1,stimuli/blank.png,Joy,a,,,,,,,,
,,,,,,,,,,,,,xuduhong,2,001,male,2021-09-30_14h43.17.433,openIAT,2020.1.0rc3,Win32,60,l,1,0.8752,,,,,,,,0.8752,1,0,13,13,11,1,stimuli/blank.png,Bad,l,,,,,,,,
,,,,,,,,,,,,,xuduhong,2,001,male,2021-09-30_14h43.17.433,openIAT,2020.1.0rc3,Win32,60,a,1,0.6746,,,,,,,,0.6746,1,0,14,14,10,1,stimuli/blank.png,Good,a,,,,,,,,
,,,,,,,,,,,,,xuduhong,2,001,male,2021-09-30_14h43.17.433,openIAT,2020.1.0rc3,Win32,60,l,1,0.8731,,,,,,,,0.8731,1,0,15,15,19,1,stimuli/blank.png,Nasty,l,,,,,,,,
,,,,,,,,,,,,,xuduhong,2,001,male,2021-09-30_14h43.17.433,openIAT,2020.1.0rc3,Win32,60,a,0,0.7141,,,,,,,,0.7141,0,0,16,16,4,1,stimuli/black_3.jpg,NaN,l,,,,,,,,
,,,,,,,,,,,,,xuduhong,2,001,male,2021-09-30_14h43.17.433,openIAT,2020.1.0rc3,Win32,60,a,1,0.9239,,,,,,,,0.9239,1,0,17,17,1,1,stimuli/white_1.jpg,NaN,a,,,,,,,,
,,,,,,,,,,,,,xuduhong,2,001,male,2021-09-30_14h43.17.433,openIAT,2020.1.0rc3,Win32,60,l,0,0.6845,,,,,,,,0.6845,0,0,18,18,7,1,stimuli/white_4.jpg,NaN,a,,,,,,,,
,,,,,,,,,,,,,xuduhong,2,001,male,2021-09-30_14h43.17.433,openIAT,2020.1.0rc3,Win32,60,a,0,0.51,,,,,,,,0.51,0,0,19,19,6,1,stimuli/black_4.jpg,NaN,l,,,,,,,,
