instr_done_touch.x,instr_done_touch.y,instr_done_touch.leftButton,instr_done_touch.midButton,instr_done_touch.rightButton,instr_done_touch.clicked_name,instruct_pages.thisRepN,instruct_pages.thisTrialN,instruct_pages.thisN,instruct_pages.thisIndex,instruct_pages.ran,pageN,instruct_text,participant,order,session,gender,date,expName,psychopyVersion,OS,frameRate,key_resp.keys,key_resp.corr,key_resp.rt,touch_resp.x,touch_resp.y,touch_resp.leftButton,touch_resp.midButton,touch_resp.rightButton,touch_resp.time,touch_resp.clicked_name,rt,corr,trials.thisRepN,trials.thisTrialN,trials.thisN,trials.thisIndex,trials.ran,stimImage,stimWord,CorrAns,blocks.thisRepN,blocks.thisTrialN,blocks.thisN,blocks.thisIndex,blocks.ran,conds_file,label_left,label_right
0.045833333,-0.422916667,1,0,0,instr_done_button,0,0,0,0,1,1,"You will be presented with words or images to classify into categories using either the 'A' or 'L' key. 
 
Try to go as fast as possible while making as few mistakes as possible. 
",XXXAAA,1,001,female,2020-10-25_19h42.00.670,openIAT,2020.1.0rc3,Win32,60,,,,,,,,,,,,,,,,,,,,,,,,,,,,
-0.04375,-0.374305556,1,0,0,instr_done_button,0,1,1,1,1,2,"Keep in mind: 
 
1) Labels at the top of the screen indicate which catogory goes with which key. 
 
2) Each word or image has a correct catogory classification 
 
3) Keep your index fingers on the A and L keys to enable a rapid response. 
 
4) The test gives no results if you go slow- please try to go as fast as possible 
",XXXAAA,1,001,female,2020-10-25_19h42.00.670,openIAT,2020.1.0rc3,Win32,60,,,,,,,,,,,,,,,,,,,,,,,,,,,,
,,,,,,,,,,,,,XXXAAA,1,001,female,2020-10-25_19h42.00.670,openIAT,2020.1.0rc3,Win32,60,a,1,1.73702,,,,,,,,1.73702,1,0,0,0,6,1,stimuli/blank.png,Love,a,,,,,,,,
,,,,,,,,,,,,,XXXAAA,1,001,female,2020-10-25_19h42.00.670,openIAT,2020.1.0rc3,Win32,60,l,1,1.03517,,,,,,,,1.03517,1,0,1,1,1,1,stimuli/blank.png,Bad,l,,,,,,,,
,,,,,,,,,,,,,XXXAAA,1,001,female,2020-10-25_19h42.00.670,openIAT,2020.1.0rc3,Win32,60,a,1,0.70219,,,,,,,,0.70219,1,0,2,2,0,1,stimuli/blank.png,Good,a,,,,,,,,
,,,,,,,,,,,,,XXXAAA,1,001,female,2020-10-25_19h42.00.670,openIAT,2020.1.0rc3,Win32,60,l,1,1.13812,,,,,,,,1.13812,1,0,3,3,5,1,stimuli/blank.png,Agony,l,,,,,,,,
,,,,,,,,,,,,,XXXAAA,1,001,female,2020-10-25_19h42.00.670,openIAT,2020.1.0rc3,Win32,60,l,1,1.268295,,,,,,,,1.268295,1,0,4,4,7,1,stimuli/blank.png,Evil,l,,,,,,,,
,,,,,,,,,,,,,XXXAAA,1,001,female,2020-10-25_19h42.00.670,openIAT,2020.1.0rc3,Win32,60,a,1,0.687165,,,,,,,,0.687165,1,0,5,5,4,1,stimuli/blank.png,Pleasure,a,,,,,,,,
,,,,,,,,,,,,,XXXAAA,1,001,female,2020-10-25_19h42.00.670,openIAT,2020.1.0rc3,Win32,60,a,1,0.583225,,,,,,,,0.583225,1,0,6,6,8,1,stimuli/blank.png,Joy,a,,,,,,,,
,,,,,,,,,,,,,XXXAAA,1,001,female,2020-10-25_19h42.00.670,openIAT,2020.1.0rc3,Win32,60,a,1,0.379805,,,,,,,,0.379805,1,0,7,7,2,1,stimuli/blank.png,Happy,a,,,,,,,,
,,,,,,,,,,,,,XXXAAA,1,001,female,2020-10-25_19h42.00.670,openIAT,2020.1.0rc3,Win32,60,l,1,0.785845,,,,,,,,0.785845,1,0,8,8,3,1,stimuli/blank.png,Hurt,l,,,,,,,,
,,,,,,,,,,,,,XXXAAA,1,001,female,2020-10-25_19h42.00.670,openIAT,2020.1.0rc3,Win32,60,l,1,0.572925,,,,,,,,0.572925,1,0,9,9,9,1,stimuli/blank.png,Nasty,l,,,,,,,,
,,,,,,,,,,,,,XXXAAA,1,001,female,2020-10-25_19h42.00.670,openIAT,2020.1.0rc3,Win32,60,,,,,,,,,,,,,,,,,,,,,0,0,0,0,1,pos_neg_train.xlsx,"A = 
Positive","L = 
Negative"
,,,,,,,,,,,,,XXXAAA,1,001,female,2020-10-25_19h42.00.670,openIAT,2020.1.0rc3,Win32,60,a,0,0.923695,,,,,,,,0.923695,0,0,0,0,2,1,stimuli/black_2.jpg,NaN,l,,,,,,,,
,,,,,,,,,,,,,XXXAAA,1,001,female,2020-10-25_19h42.00.670,openIAT,2020.1.0rc3,Win32,60,a,1,1.93528,,,,,,,,1.93528,1,0,1,1,3,1,stimuli/white_2.jpg,NaN,a,,,,,,,,
,,,,,,,,,,,,,XXXAAA,1,001,female,2020-10-25_19h42.00.670,openIAT,2020.1.0rc3,Win32,60,l,1,7.89967,,,,,,,,7.89967,1,0,2,2,6,1,stimuli/black_4.jpg,NaN,l,,,,,,,,
,,,,,,,,,,,,,XXXAAA,1,001,female,2020-10-25_19h42.00.670,openIAT,2020.1.0rc3,Win32,60,l,1,1.98485,,,,,,,,1.98485,1,0,3,3,8,1,stimuli/black_5.jpg,NaN,l,,,,,,,,
,,,,,,,,,,,,,XXXAAA,1,001,female,2020-10-25_19h42.00.670,openIAT,2020.1.0rc3,Win32,60,l,1,1.16938,,,,,,,,1.16938,1,0,4,4,4,1,stimuli/black_3.jpg,NaN,l,,,,,,,,
,,,,,,,,,,,,,XXXAAA,1,001,female,2020-10-25_19h42.00.670,openIAT,2020.1.0rc3,Win32,60,a,1,1.88562,,,,,,,,1.88562,1,0,5,5,1,1,stimuli/white_1.jpg,NaN,a,,,,,,,,
,,,,,,,,,,,,,XXXAAA,1,001,female,2020-10-25_19h42.00.670,openIAT,2020.1.0rc3,Win32,60,a,1,3.034905,,,,,,,,3.034905,1,0,6,6,7,1,stimuli/white_4.jpg,NaN,a,,,,,,,,
,,,,,,,,,,,,,XXXAAA,1,001,female,2020-10-25_19h42.00.670,openIAT,2020.1.0rc3,Win32,60,a,1,2.652085,,,,,,,,2.652085,1,0,7,7,9,1,stimuli/white_5.jpg,NaN,a,,,,,,,,
,,,,,,,,,,,,,XXXAAA,1,001,female,2020-10-25_19h42.00.670,openIAT,2020.1.0rc3,Win32,60,l,1,1.3857,,,,,,,,1.3857,1,0,8,8,0,1,stimuli/black_1.jpg,NaN,l,,,,,,,,
,,,,,,,,,,,,,XXXAAA,1,001,female,2020-10-25_19h42.00.670,openIAT,2020.1.0rc3,Win32,60,a,1,1.56965,,,,,,,,1.56965,1,0,9,9,5,1,stimuli/white_3.jpg,NaN,a,,,,,,,,
,,,,,,,,,,,,,XXXAAA,1,001,female,2020-10-25_19h42.00.670,openIAT,2020.1.0rc3,Win32,60,,,,,,,,,,,,,,,,,,,,,0,1,1,1,1,cong_train.xlsx,"A = 
White","L = 
Black"
,,,,,,,,,,,,,XXXAAA,1,001,female,2020-10-25_19h42.00.670,openIAT,2020.1.0rc3,Win32,60,l,1,1.185285,,,,,,,,1.185285,1,0,0,0,6,1,stimuli/black_4.jpg,NaN,l,,,,,,,,
,,,,,,,,,,,,,XXXAAA,1,001,female,2020-10-25_19h42.00.670,openIAT,2020.1.0rc3,Win32,60,a,1,1.07178,,,,,,,,1.07178,1,0,1,1,12,1,stimuli/blank.png,Happy,a,,,,,,,,
,,,,,,,,,,,,,XXXAAA,1,001,female,2020-10-25_19h42.00.670,openIAT,2020.1.0rc3,Win32,60,l,1,0.873335,,,,,,,,0.873335,1,0,2,2,11,1,stimuli/blank.png,Bad,l,,,,,,,,
,,,,,,,,,,,,,XXXAAA,1,001,female,2020-10-25_19h42.00.670,openIAT,2020.1.0rc3,Win32,60,a,1,2.3664,,,,,,,,2.3664,1,0,3,3,3,1,stimuli/white_2.jpg,NaN,a,,,,,,,,
,,,,,,,,,,,,,XXXAAA,1,001,female,2020-10-25_19h42.00.670,openIAT,2020.1.0rc3,Win32,60,a,1,0.78978,,,,,,,,0.78978,1,0,4,4,18,1,stimuli/blank.png,Joy,a,,,,,,,,
,,,,,,,,,,,,,XXXAAA,1,001,female,2020-10-25_19h42.00.670,openIAT,2020.1.0rc3,Win32,60,a,1,0.643005,,,,,,,,0.643005,1,0,5,5,16,1,stimuli/blank.png,Love,a,,,,,,,,
,,,,,,,,,,,,,XXXAAA,1,001,female,2020-10-25_19h42.00.670,openIAT,2020.1.0rc3,Win32,60,l,1,0.93461,,,,,,,,0.93461,1,0,6,6,13,1,stimuli/blank.png,Hurt,l,,,,,,,,
,,,,,,,,,,,,,XXXAAA,1,001,female,2020-10-25_19h42.00.670,openIAT,2020.1.0rc3,Win32,60,a,1,0.967655,,,,,,,,0.967655,1,0,7,7,1,1,stimuli/white_1.jpg,NaN,a,,,,,,,,
,,,,,,,,,,,,,XXXAAA,1,001,female,2020-10-25_19h42.00.670,openIAT,2020.1.0rc3,Win32,60,l,1,2.675845,,,,,,,,2.675845,1,0,8,8,2,1,stimuli/black_2.jpg,NaN,l,,,,,,,,
,,,,,,,,,,,,,XXXAAA,1,001,female,2020-10-25_19h42.00.670,openIAT,2020.1.0rc3,Win32,60,a,1,0.80159,,,,,,,,0.80159,1,0,9,9,10,1,stimuli/blank.png,Good,a,,,,,,,,
,,,,,,,,,,,,,XXXAAA,1,001,female,2020-10-25_19h42.00.670,openIAT,2020.1.0rc3,Win32,60,a,0,0.801355,,,,,,,,0.801355,0,0,10,10,0,1,stimuli/black_1.jpg,NaN,l,,,,,,,,
,,,,,,,,,,,,,XXXAAA,1,001,female,2020-10-25_19h42.00.670,openIAT,2020.1.0rc3,Win32,60,l,1,0.803055,,,,,,,,0.803055,1,0,11,11,19,1,stimuli/blank.png,Nasty,l,,,,,,,,
,,,,,,,,,,,,,XXXAAA,1,001,female,2020-10-25_19h42.00.670,openIAT,2020.1.0rc3,Win32,60,l,1,1.02314,,,,,,,,1.02314,1,0,12,12,17,1,stimuli/blank.png,Evil,l,,,,,,,,
,,,,,,,,,,,,,XXXAAA,1,001,female,2020-10-25_19h42.00.670,openIAT,2020.1.0rc3,Win32,60,l,0,0.65147,,,,,,,,0.65147,0,0,13,13,9,1,stimuli/white_5.jpg,NaN,a,,,,,,,,
,,,,,,,,,,,,,XXXAAA,1,001,female,2020-10-25_19h42.00.670,openIAT,2020.1.0rc3,Win32,60,a,1,0.54086,,,,,,,,0.54086,1,0,14,14,5,1,stimuli/white_3.jpg,NaN,a,,,,,,,,
,,,,,,,,,,,,,XXXAAA,1,001,female,2020-10-25_19h42.00.670,openIAT,2020.1.0rc3,Win32,60,l,1,0.673095,,,,,,,,0.673095,1,0,15,15,8,1,stimuli/black_5.jpg,NaN,l,,,,,,,,
,,,,,,,,,,,,,XXXAAA,1,001,female,2020-10-25_19h42.00.670,openIAT,2020.1.0rc3,Win32,60,l,1,1.388545,,,,,,,,1.388545,1,0,16,16,4,1,stimuli/black_3.jpg,NaN,l,,,,,,,,
,,,,,,,,,,,,,XXXAAA,1,001,female,2020-10-25_19h42.00.670,openIAT,2020.1.0rc3,Win32,60,l,1,1.041145,,,,,,,,1.041145,1,0,17,17,15,1,stimuli/blank.png,Agony,l,,,,,,,,
,,,,,,,,,,,,,XXXAAA,1,001,female,2020-10-25_19h42.00.670,openIAT,2020.1.0rc3,Win32,60,a,1,3.21304,,,,,,,,3.21304,1,0,18,18,7,1,stimuli/white_4.jpg,NaN,a,,,,,,,,
,,,,,,,,,,,,,XXXAAA,1,001,female,2020-10-25_19h42.00.670,openIAT,2020.1.0rc3,Win32,60,a,1,3.49611,,,,,,,,3.49611,1,0,19,19,14,1,stimuli/blank.png,Pleasure,a,,,,,,,,
,,,,,,,,,,,,,XXXAAA,1,001,female,2020-10-25_19h42.00.670,openIAT,2020.1.0rc3,Win32,60,,,,,,,,,,,,,,,,,,,,,0,2,2,2,1,cong_test.xlsx,"A = 
White or 
Positive","L = 
Black or 
Negative"
,,,,,,,,,,,,,XXXAAA,1,001,female,2020-10-25_19h42.00.670,openIAT,2020.1.0rc3,Win32,60,a,0,1.056785,,,,,,,,1.056785,0,0,0,0,5,1,stimuli/white_3.jpg,,l,,,,,,,,
,,,,,,,,,,,,,XXXAAA,1,001,female,2020-10-25_19h42.00.670,openIAT,2020.1.0rc3,Win32,60,l,0,1.03249,,,,,,,,1.03249,0,0,1,1,6,1,stimuli/black_4.jpg,,a,,,,,,,,
,,,,,,,,,,,,,XXXAAA,1,001,female,2020-10-25_19h42.00.670,openIAT,2020.1.0rc3,Win32,60,a,0,0.79145,,,,,,,,0.79145,0,0,2,2,1,1,stimuli/white_1.jpg,,l,,,,,,,,
,,,,,,,,,,,,,XXXAAA,1,001,female,2020-10-25_19h42.00.670,openIAT,2020.1.0rc3,Win32,60,a,1,5.11236,,,,,,,,5.11236,1,0,3,3,0,1,stimuli/black_1.jpg,,a,,,,,,,,
,,,,,,,,,,,,,XXXAAA,1,001,female,2020-10-25_19h42.00.670,openIAT,2020.1.0rc3,Win32,60,l,1,0.97852,,,,,,,,0.97852,1,0,4,4,7,1,stimuli/white_4.jpg,,l,,,,,,,,
,,,,,,,,,,,,,XXXAAA,1,001,female,2020-10-25_19h42.00.670,openIAT,2020.1.0rc3,Win32,60,a,1,0.61054,,,,,,,,0.61054,1,0,5,5,4,1,stimuli/black_3.jpg,,a,,,,,,,,
,,,,,,,,,,,,,XXXAAA,1,001,female,2020-10-25_19h42.00.670,openIAT,2020.1.0rc3,Win32,60,l,1,13.42221,,,,,,,,13.42221,1,0,6,6,9,1,stimuli/white_5.jpg,,l,,,,,,,,
,,,,,,,,,,,,,XXXAAA,1,001,female,2020-10-25_19h42.00.670,openIAT,2020.1.0rc3,Win32,60,l,1,1.738825,,,,,,,,1.738825,1,0,7,7,3,1,stimuli/white_2.jpg,,l,,,,,,,,
,,,,,,,,,,,,,XXXAAA,1,001,female,2020-10-25_19h42.00.670,openIAT,2020.1.0rc3,Win32,60,a,1,1.68388,,,,,,,,1.68388,1,0,8,8,8,1,stimuli/black_5.jpg,,a,,,,,,,,
,,,,,,,,,,,,,XXXAAA,1,001,female,2020-10-25_19h42.00.670,openIAT,2020.1.0rc3,Win32,60,a,1,3.25851,,,,,,,,3.25851,1,0,9,9,2,1,stimuli/black_2.jpg,,a,,,,,,,,
,,,,,,,,,,,,,XXXAAA,1,001,female,2020-10-25_19h42.00.670,openIAT,2020.1.0rc3,Win32,60,,,,,,,,,,,,,,,,,,,,,0,3,3,3,1,incong_train.xlsx,"A = 
Black","L = 
White"
,,,,,,,,,,,,,XXXAAA,1,001,female,2020-10-25_19h42.00.670,openIAT,2020.1.0rc3,Win32,60,l,1,8.339675,,,,,,,,8.339675,1,0,0,0,7,1,stimuli/white_4.jpg,,l,,,,,,,,
,,,,,,,,,,,,,XXXAAA,1,001,female,2020-10-25_19h42.00.670,openIAT,2020.1.0rc3,Win32,60,a,1,1.035495,,,,,,,,1.035495,1,0,1,1,2,1,stimuli/black_2.jpg,,a,,,,,,,,
,,,,,,,,,,,,,XXXAAA,1,001,female,2020-10-25_19h42.00.670,openIAT,2020.1.0rc3,Win32,60,l,1,16.896875,,,,,,,,16.896875,1,0,2,2,13,1,stimuli/blank.png,Hurt,l,,,,,,,,
,,,,,,,,,,,,,XXXAAA,1,001,female,2020-10-25_19h42.00.670,openIAT,2020.1.0rc3,Win32,60,l,0,0.93563,,,,,,,,0.93563,0,0,3,3,8,1,stimuli/black_5.jpg,,a,,,,,,,,
